AX AY AZ AT GX GY GZ GT TS
0 0 0 0 14.04 10.13 11.41 35.58 1655503797.6674619
-0.1 -0.09 -2.04 -2.24 13.98 11.23 4.64 29.85 1655503797.667898
-0.1 -0.13 -2.04 -2.27 14.16 11.78 2.44 28.38 1655503797.668199
-0.1 -0.13 -2.04 -2.26 14.16 9.95 10.13 34.24 1655503797.6684084
-0.11 -0.13 -2.04 -2.28 13.61 11.17 9.09 33.87 1655503797.6687229
-0.11 -0.13 -2.04 -2.28 14.53 10.8 9.46 34.79 1655503797.6689143
-0.11 -0.13 -2.04 -2.27 13.73 10.5 8.36 32.59 1655503797.6691556
-0.11 -0.13 -2.04 -2.28 12.33 10.25 8.48 31.07 1655503797.6693947
-0.11 -0.13 -2.04 -2.28 12.76 10.68 8.79 32.23 1655503797.6696336
-0.1 -0.13 -2.04 -2.26 12.39 10.5 8.79 31.68 1655503797.6699045
-0.1 -0.13 -2.03 -2.26 13.79 10.56 9.95 34.3 1655503797.6701543
-0.1 -0.13 -2.04 -2.28 13.43 10.5 10.25 34.18 1655503797.6705294
-0.1 -0.13 -2.04 -2.27 14.28 9.34 9.83 33.45 1655503797.67088
-0.1 -0.13 -2.04 -2.28 12.82 10.99 9.52 33.33 1655503797.671263
-0.1 -0.13 -2.03 -2.27 12.57 10.13 8.42 31.13 1655503797.671627
-0.11 -0.13 -2.04 -2.28 12.21 9.58 9.22 31.01 1655503797.6719935
-0.11 -0.13 -2.04 -2.27 13.06 9.64 9.28 31.98 1655503797.6723309
-0.1 -0.13 -2.04 -2.27 11.05 9.22 8.91 29.17 1655503797.6726344
-0.1 -0.13 -2.04 -2.28 13.79 9.77 8.79 32.35 1655503797.6729317
-0.1 -0.12 -2.04 -2.27 13.24 9.34 9.46 32.04 1655503797.6732283
-0.1 -0.13 -2.04 -2.27 11.23 10.19 9.95 31.37 1655503797.6735322
-0.1 -0.12 -2.04 -2.26 10.99 8.61 9.58 29.17 1655503797.6738288
-0.1 -0.12 -2.04 -2.27 12.63 9.7 8.48 30.82 1655503797.6741278
-0.1 -0.13 -2.04 -2.26 13.0 9.95 9.03 31.98 1655503797.6744254
-0.11 -0.13 -2.03 -2.26 10.62 8.61 9.22 28.44 1655503797.674722
-0.1 -0.12 -2.04 -2.27 11.35 9.03 9.58 29.97 1655503797.675029
-0.1 -0.13 -2.03 -2.27 12.57 9.89 8.61 31.07 1655503797.675325
-0.1 -0.13 -2.04 -2.27 11.72 9.46 9.58 30.76 1655503797.6756248
-0.11 -0.13 -2.04 -2.27 12.51 9.58 8.61 30.7 1655503797.6759243
-0.1 -0.13 -2.04 -2.26 11.11 10.31 8.85 30.27 1655503797.6763458
-0.1 -0.12 -2.04 -2.26 12.94 10.56 9.58 33.08 1655503797.6782608
-0.11 -0.12 -2.04 -2.27 11.96 9.89 8.54 30.4 1655503797.681793
-0.1 -0.13 -2.04 -2.26 13.98 10.38 8.85 33.2 1655503797.685054
-0.1 -0.13 -2.04 -2.27 13.12 10.8 9.77 33.69 1655503797.6884036
-0.1 -0.13 -2.04 -2.27 12.76 11.66 9.09 33.51 1655503797.6915257
-0.1 -0.13 -2.04 -2.27 13.12 10.86 9.16 33.14 1655503797.6952326
-0.1 -0.13 -2.04 -2.27 13.31 11.17 9.4 33.87 1655503797.6984456
-0.1 -0.13 -2.04 -2.27 15.38 9.52 9.46 34.36 1655503797.701799
-0.11 -0.13 -2.04 -2.28 14.47 9.64 8.67 32.78 1655503797.7051032
-0.11 -0.12 -2.04 -2.27 13.55 9.83 9.03 32.41 1655503797.708384
-0.1 -0.13 -2.04 -2.28 11.9 8.3 9.09 29.3 1655503797.711414
-0.1 -0.13 -2.05 -2.27 13.37 9.89 8.67 31.92 1655503797.715054
-0.1 -0.13 -2.04 -2.27 13.37 10.19 10.25 33.81 1655503797.7183542
-0.1 -0.13 -2.04 -2.26 13.55 9.28 8.97 31.8 1655503797.721933
-0.1 -0.13 -2.04 -2.27 15.38 10.07 8.48 33.94 1655503797.7258291
-0.1 -0.13 -2.04 -2.27 14.34 10.74 10.07 35.16 1655503797.7284813
-0.1 -0.13 -2.04 -2.27 14.83 9.34 9.16 33.33 1655503797.7313845
-0.1 -0.12 -2.04 -2.27 13.49 9.7 9.09 32.29 1655503797.7351642
-0.1 -0.13 -2.04 -2.28 12.45 8.61 8.61 29.66 1655503797.7404928
-0.1 -0.13 -2.04 -2.28 12.27 9.52 8.79 30.58 1655503797.7565138
-0.11 -0.13 -2.04 -2.28 12.57 9.58 9.89 32.04 1655503797.757446
-0.1 -0.13 -2.04 -2.27 13.06 11.96 8.54 33.57 1655503797.7579885
-0.11 -0.13 -2.04 -2.28 12.27 10.56 10.44 33.26 1655503797.7584026
-0.11 -0.12 -2.04 -2.27 13.49 8.06 9.89 31.43 1655503797.75912
-0.1 -0.13 -2.04 -2.27 11.84 11.54 10.01 33.39 1655503797.759565
-0.1 -0.13 -2.04 -2.27 12.33 8.97 10.5 31.8 1655503797.7612538
-0.1 -0.12 -2.03 -2.26 11.78 10.31 10.01 32.1 1655503797.7655697
-0.1 -0.13 -2.05 -2.28 11.11 9.4 8.91 29.42 1655503797.7679558
-0.1 -0.13 -2.05 -2.28 11.54 8.42 9.52 29.48 1655503797.7817564
-0.1 -0.13 -2.03 -2.26 10.38 8.54 9.46 28.38 1655503797.7825313
-0.1 -0.1 -2.04 -2.24 12.33 8.85 9.28 30.46 1655503797.783102
-0.1 -0.13 -2.03 -2.27 12.08 8.48 9.46 30.03 1655503797.7835822
-0.11 -0.12 -2.03 -2.26 11.72 9.46 8.85 30.03 1655503797.7843633
-0.1 -0.13 -2.04 -2.27 11.6 10.07 9.95 31.62 1655503797.7876976
-0.1 -0.13 -2.03 -2.26 12.82 9.16 10.07 32.04 1655503797.7929482
-0.1 -0.13 -2.03 -2.26 14.95 9.89 10.13 34.97 1655503797.7947366
-0.1 -0.12 -2.04 -2.26 14.34 10.07 9.64 34.06 1655503797.8021626
-0.1 -0.13 -2.03 -2.26 16.3 11.29 9.09 36.68 1655503797.8025773
-0.1 -0.13 -2.03 -2.26 14.89 11.05 9.89 35.83 1655503797.8057206
-0.1 -0.13 -2.04 -2.26 14.28 10.74 9.95 34.97 1655503797.8075473
-0.1 -0.13 -2.03 -2.26 13.67 11.72 10.13 35.52 1655503797.8108761
-0.1 -0.13 -2.04 -2.26 14.77 11.35 9.52 35.64 1655503797.814191
-0.1 -0.13 -2.04 -2.28 14.53 9.7 9.22 33.45 1655503797.8174787
-0.1 -0.13 -2.04 -2.27 14.04 10.5 10.01 34.55 1655503797.8208928
-0.1 -0.13 -2.05 -2.28 14.47 11.78 9.46 35.71 1655503797.824142
-0.1 -0.13 -2.04 -2.27 13.18 11.05 10.13 34.36 1655503797.8275437
-0.1 -0.13 -2.04 -2.26 12.82 10.19 9.89 32.9 1655503797.830762
-0.1 -0.13 -2.04 -2.26 14.77 9.03 9.46 33.26 1655503797.8342109
-0.1 -0.13 -2.05 -2.27 13.37 8.79 9.22 31.37 1655503797.8377674
-0.09 -0.13 -2.04 -2.26 13.37 10.07 10.74 34.18 1655503797.8407788
-0.1 -0.13 -2.04 -2.27 14.4 9.83 9.58 33.81 1655503797.844092
-0.1 -0.13 -2.04 -2.27 12.76 10.44 8.97 32.17 1655503797.8473654
-0.1 -0.13 -2.04 -2.27 12.45 11.9 8.91 33.26 1655503797.8585835
-0.1 -0.13 -2.04 -2.27 11.72 8.61 9.64 29.97 1655503797.8590336
-0.1 -0.13 -2.04 -2.27 10.56 10.8 9.7 31.07 1655503797.85946
-0.1 -0.13 -2.04 -2.27 12.15 9.7 9.52 31.37 1655503797.8627362
-0.1 -0.16 -2.04 -2.29 10.99 10.31 9.52 30.82 1655503797.8640335
-0.1 -0.13 -2.04 -2.27 10.99 9.89 10.13 31.01 1655503797.8673651
-0.1 -0.13 -2.04 -2.28 11.29 10.25 8.61 30.15 1655503797.8706527
-0.1 -0.13 -2.04 -2.27 10.99 9.22 8.85 29.05 1655503797.8740442
-0.1 -0.13 -2.04 -2.27 9.52 9.34 8.91 27.77 1655503797.8773844
-0.1 -0.13 -2.04 -2.27 11.6 9.7 8.79 30.09 1655503797.880693
-0.1 -0.13 -2.03 -2.26 12.94 9.16 8.91 31.01 1655503797.8839219
-0.11 -0.13 -2.04 -2.27 12.02 10.01 9.22 31.25 1655503797.8872511
-0.11 -0.13 -2.04 -2.28 11.84 9.16 10.19 31.19 1655503797.8906324
-0.11 -0.13 -2.04 -2.27 11.96 9.09 9.83 30.88 1655503797.893853
-0.11 -0.13 -2.04 -2.27 10.99 10.13 8.97 30.09 1655503797.897364
-0.11 -0.13 -2.04 -2.28 10.5 9.22 8.91 28.63 1655503797.900565
-0.11 -0.13 -2.04 -2.28 12.63 9.58 9.77 31.98 1655503797.9099593
-0.1 -0.13 -2.04 -2.27 13.92 9.4 9.77 33.08 1655503797.9102712
-0.1 -0.13 -2.04 -2.27 13.06 9.7 9.28 32.04 1655503797.910601
-0.1 -0.13 -2.03 -2.27 13.67 9.09 8.73 31.49 1655503797.9136543
-0.1 -0.13 -2.03 -2.26 13.79 10.62 9.22 33.63 1655503797.9169946
-0.1 -0.13 -2.04 -2.27 13.43 10.31 9.77 33.51 1655503797.920545
-0.1 -0.13 -2.04 -2.27 15.2 11.23 10.68 37.11 1655503797.9236574
-0.1 -0.13 -2.04 -2.27 15.56 12.21 9.46 37.23 1655503797.9270601
-0.11 -0.13 -2.04 -2.28 14.83 11.41 10.93 37.17 1655503797.9302754
-0.1 -0.13 -2.04 -2.27 13.31 11.41 10.19 34.91 1655503797.9337535
-0.1 -0.13 -2.04 -2.27 14.71 11.11 10.19 36.01 1655503797.9368715
-0.1 -0.13 -2.04 -2.27 14.22 11.17 9.7 35.1 1655503797.9402096
-0.1 -0.13 -2.04 -2.27 14.77 10.19 9.03 34.0 1655503797.943557
-0.1 -0.12 -2.04 -2.26 14.16 8.79 8.97 31.92 1655503797.946969
-0.1 -0.13 -2.04 -2.27 14.95 9.46 10.56 34.97 1655503797.9501352
-0.1 -0.12 -2.04 -2.26 14.83 9.34 10.74 34.91 1655503797.9559977
-0.1 -0.13 -2.05 -2.27 13.67 8.97 9.77 32.41 1655503797.9567409
-0.1 -0.12 -2.04 -2.26 12.27 9.22 9.77 31.25 1655503797.9601002
-0.1 -0.13 -2.04 -2.27 14.16 9.34 9.03 32.53 1655503797.9635458
-0.1 -0.13 -2.04 -2.27 13.0 11.05 9.77 33.81 1655503797.9668539
-0.1 -0.13 -2.04 -2.27 13.24 9.16 9.77 32.17 1655503797.970073
-0.1 -0.13 -2.03 -2.25 11.23 10.56 9.46 31.25 1655503797.9736717
-0.1 -0.13 -2.04 -2.27 12.02 10.62 8.85 31.49 1655503797.9767227
-0.1 -0.13 -2.04 -2.27 13.12 10.62 8.36 32.1 1655503797.9799578
-0.1 -0.13 -2.04 -2.27 12.27 9.58 8.12 29.97 1655503797.983323
-0.1 -0.13 -2.04 -2.27 11.6 8.85 9.03 29.48 1655503797.9866056
-0.11 -0.13 -2.04 -2.27 13.37 9.03 8.36 30.76 1655503797.9900353
-0.1 -0.13 -2.04 -2.27 11.72 9.89 8.54 30.15 1655503797.9933598
-0.1 -0.13 -2.04 -2.27 12.08 10.07 9.09 31.25 1655503797.9966807
-0.1 -0.13 -2.04 -2.27 12.82 9.4 8.3 30.52 1655503798.000898
-0.1 -0.13 -2.05 -2.28 11.41 9.09 8.79 29.3 1655503798.009046
-0.11 -0.13 -2.04 -2.27 11.29 8.24 10.01 29.54 1655503798.0096793
-0.1 -0.13 -2.04 -2.27 12.57 8.48 9.34 30.4 1655503798.0102854
-0.11 -0.13 -2.04 -2.27 11.29 9.7 9.58 30.58 1655503798.0136857
-0.1 -0.13 -2.04 -2.26 11.41 9.7 10.25 31.37 1655503798.0165966
-0.1 -0.13 -2.04 -2.27 10.31 9.4 10.07 29.79 1655503798.0200324
-0.11 -0.13 -2.04 -2.27 11.72 10.19 10.19 32.1 1655503798.0233245
-0.1 -0.13 -2.03 -2.27 11.9 9.77 9.4 31.07 1655503798.026645
-0.1 -0.13 -2.04 -2.27 11.29 8.85 9.52 29.66 1655503798.030047
-0.1 -0.13 -2.04 -2.27 11.6 9.22 9.28 30.09 1655503798.0333438
-0.1 -0.13 -2.04 -2.27 12.33 10.5 9.22 32.04 1655503798.0367508
-0.1 -0.13 -2.04 -2.27 11.78 9.16 9.83 30.76 1655503798.040032
-0.11 -0.13 -2.04 -2.28 15.14 10.07 10.01 35.22 1655503798.0433493
-0.1 -0.13 -2.04 -2.27 15.01 9.64 9.4 34.06 1655503798.0465717
-0.1 -0.13 -2.04 -2.28 13.85 10.01 8.54 32.41 1655503798.0499454
-0.1 -0.13 -2.04 -2.27 15.08 9.77 9.09 33.94 1655503798.063773
-0.1 -0.13 -2.04 -2.27 14.83 8.3 9.09 32.23 1655503798.0648234
-0.1 -0.13 -2.04 -2.27 13.92 9.46 9.4 32.78 1655503798.0658503
-0.1 -0.13 -2.04 -2.27 12.76 9.7 9.22 31.68 1655503798.0668766
-0.1 -0.13 -2.04 -2.27 14.1 10.25 9.58 33.94 1655503798.071759
-0.1 -0.13 -2.04 -2.27 15.2 10.62 9.09 34.91 1655503798.0728211
-0.1 -0.13 -2.04 -2.28 14.34 10.31 9.22 33.87 1655503798.0738642
-0.1 -0.13 -2.04 -2.27 13.67 9.77 8.67 32.1 1655503798.0764835
-0.09 -0.13 -2.04 -2.26 13.92 9.22 9.46 32.59 1655503798.0798106
-0.1 -0.13 -2.05 -2.27 14.47 9.4 9.4 33.26 1655503798.0831878
-0.1 -0.13 -2.04 -2.27 13.55 9.4 9.7 32.65 1655503798.0864234
-0.1 -0.13 -2.05 -2.27 13.12 9.16 8.42 30.7 1655503798.0897498
-0.1 -0.13 -2.04 -2.27 11.72 9.52 8.48 29.72 1655503798.0930727
-0.09 -0.13 -2.04 -2.27 11.05 9.03 10.19 30.27 1655503798.0963879
-0.1 -0.13 -2.04 -2.27 9.46 8.3 9.64 27.4 1655503798.0996554
-0.1 -0.13 -2.03 -2.26 10.44 8.36 8.18 26.98 1655503798.103445
-0.1 -0.13 -2.04 -2.27 11.47 9.03 8.12 28.63 1655503798.1161637
-0.1 -0.13 -2.04 -2.27 11.17 9.22 8.67 29.05 1655503798.1172128
-0.1 -0.13 -2.04 -2.27 10.56 7.93 8.61 27.1 1655503798.122064
-0.1 -0.13 -2.04 -2.27 11.54 8.67 9.52 29.72 1655503798.123176
-0.1 -0.13 -2.04 -2.27 11.05 9.58 10.68 31.31 1655503798.1241317
-0.1 -0.13 -2.04 -2.27 12.76 8.06 9.16 29.97 1655503798.1248496
-0.1 -0.13 -2.04 -2.27 12.82 10.01 9.09 31.92 1655503798.1260707
-0.1 -0.13 -2.04 -2.27 11.47 9.89 9.95 31.31 1655503798.1293566
-0.1 -0.13 -2.03 -2.26 12.7 10.07 10.07 32.84 1655503798.1327012
-0.1 -0.13 -2.04 -2.27 11.9 9.09 10.19 31.19 1655503798.1360204
-0.1 -0.13 -2.04 -2.27 12.88 8.67 9.89 31.43 1655503798.1393187
-0.1 -0.13 -2.03 -2.27 13.67 10.13 9.4 33.2 1655503798.1425962
-0.11 -0.13 -2.04 -2.28 13.31 8.79 8.48 30.58 1655503798.1459022
-0.11 -0.13 -2.04 -2.27 11.78 10.38 9.46 31.62 1655503798.1494162
-0.1 -0.13 -2.04 -2.27 13.73 9.89 10.01 33.63 1655503798.1526427
-0.11 -0.13 -2.04 -2.28 13.12 11.66 8.97 33.75 1655503798.1639748
-0.1 -0.13 -2.04 -2.27 14.22 11.23 9.28 34.73 1655503798.1650405
-0.1 -0.13 -2.04 -2.27 15.01 10.31 9.4 34.73 1655503798.1660874
-0.1 -0.13 -2.04 -2.27 15.14 9.89 9.52 34.55 1655503798.171042
-0.1 -0.13 -2.04 -2.27 15.81 10.68 9.77 36.25 1655503798.1721208
-0.1 -0.13 -2.04 -2.27 15.08 9.7 10.5 35.28 1655503798.1731737
-0.11 -0.13 -2.03 -2.27 13.98 9.95 8.73 32.65 1655503798.175781
-0.1 -0.13 -2.04 -2.27 14.59 10.56 9.77 34.91 1655503798.1790438
-0.1 -0.13 -2.03 -2.26 15.01 11.17 10.38 36.56 1655503798.182444
-0.1 -0.13 -2.04 -2.28 15.08 10.99 9.09 35.16 1655503798.1855578
-0.1 -0.13 -2.04 -2.28 13.49 10.5 8.06 32.04 1655503798.18897
-0.1 -0.13 -2.05 -2.28 13.18 11.05 8.18 32.41 1655503798.1921036
-0.1 -0.13 -2.04 -2.27 13.67 10.13 7.75 31.56 1655503798.1957865
-0.1 -0.13 -2.04 -2.27 13.61 9.7 9.09 32.41 1655503798.199186
-0.1 -0.13 -2.04 -2.27 13.49 10.99 9.22 33.69 1655503798.203075
-0.1 -0.13 -2.04 -2.27 13.49 9.34 9.58 32.41 1655503798.2147985
-0.1 -0.13 -2.04 -2.27 12.88 10.25 10.07 33.2 1655503798.216963
-0.1 -0.13 -2.04 -2.26 10.74 9.4 9.03 29.17 1655503798.2218766
-0.1 -0.13 -2.04 -2.27 11.29 8.36 8.36 28.02 1655503798.2229404
-0.1 -0.13 -2.04 -2.27 11.84 8.97 7.87 28.69 1655503798.223962
-0.1 -0.13 -2.04 -2.27 11.29 9.83 8.61 29.72 1655503798.2246768
-0.1 -0.13 -2.04 -2.27 11.05 8.18 9.28 28.5 1655503798.2253847
-0.1 -0.13 -2.04 -2.27 10.19 9.58 9.22 28.99 1655503798.2288103
-0.1 -0.13 -2.03 -2.27 11.66 9.77 8.42 29.85 1655503798.2321355
-0.1 -0.12 -2.04 -2.26 11.23 8.36 9.09 28.69 1655503798.2354593
-0.1 -0.13 -2.04 -2.27 11.23 8.85 8.61 28.69 1655503798.2387996
-0.1 -0.13 -2.04 -2.27 10.31 8.73 8.73 27.77 1655503798.24208
-0.1 -0.13 -2.04 -2.27 12.27 9.58 9.64 31.49 1655503798.245419
-0.1 -0.13 -2.04 -2.27 11.72 8.48 9.83 30.03 1655503798.248704
-0.1 -0.13 -2.03 -2.26 12.39 8.42 9.4 30.21 1655503798.2520254
-0.11 -0.13 -2.04 -2.27 12.39 10.01 9.22 31.62 1655503798.2598453
-0.1 -0.13 -2.04 -2.26 12.76 9.28 9.03 31.07 1655503798.2605803
-0.1 -0.13 -2.04 -2.27 12.88 10.68 9.22 32.78 1655503798.26485
-0.1 -0.13 -2.04 -2.28 13.0 10.31 10.38 33.69 1655503798.2656257
-0.11 -0.13 -2.03 -2.27 12.88 11.96 9.16 34.0 1655503798.268666
-0.11 -0.13 -2.04 -2.28 12.57 10.01 9.83 32.41 1655503798.2719758
-0.1 -0.13 -2.03 -2.26 12.63 8.85 10.01 31.49 1655503798.2752736
-0.11 -0.13 -2.03 -2.27 14.59 10.01 8.79 33.39 1655503798.2785947
-0.1 -0.13 -2.03 -2.27 12.88 9.77 9.58 32.23 1655503798.2818842
-0.11 -0.13 -2.04 -2.27 13.31 9.7 9.95 32.96 1655503798.2851782
-0.11 -0.13 -2.04 -2.27 10.99 9.64 10.13 30.76 1655503798.2884881
-0.1 -0.13 -2.04 -2.27 13.61 10.01 8.97 32.59 1655503798.2917912
-0.1 -0.12 -2.04 -2.26 13.18 10.86 10.38 34.42 1655503798.2952106
-0.1 -0.13 -2.04 -2.27 14.71 10.93 9.09 34.73 1655503798.2984717
-0.1 -0.13 -2.04 -2.27 13.55 11.41 8.67 33.63 1655503798.301754
-0.1 -0.13 -2.04 -2.27 14.77 9.64 8.67 33.08 1655503798.3132675
-0.1 -0.12 -2.04 -2.26 12.82 10.56 9.89 33.26 1655503798.3142507
-0.1 -0.13 -2.05 -2.27 15.2 9.7 10.38 35.28 1655503798.315239
-0.1 -0.13 -2.04 -2.27 13.37 9.22 9.64 32.23 1655503798.3217585
-0.1 -0.13 -2.04 -2.27 13.79 10.8 9.7 34.3 1655503798.3227513
-0.11 -0.13 -2.04 -2.27 13.92 11.23 9.89 35.03 1655503798.323843
-0.1 -0.13 -2.04 -2.27 13.12 11.23 8.67 33.02 1655503798.3251064
-0.1 -0.13 -2.04 -2.27 13.06 9.46 9.34 31.86 1655503798.32837
-0.1 -0.13 -2.04 -2.27 13.06 9.09 8.24 30.4 1655503798.3317115
-0.1 -0.13 -2.04 -2.27 13.06 9.34 9.4 31.8 1655503798.3350508
-0.11 -0.13 -2.04 -2.28 12.88 8.24 10.25 31.37 1655503798.3383014
-0.1 -0.13 -2.04 -2.28 10.62 9.52 9.46 29.6 1655503798.3416018
-0.11 -0.13 -2.04 -2.28 12.08 9.03 9.58 30.7 1655503798.3449452
-0.1 -0.13 -2.04 -2.27 11.17 8.91 8.79 28.87 1655503798.3482215
-0.1 -0.13 -2.04 -2.27 10.5 9.52 9.22 29.24 1655503798.352702
-0.11 -0.13 -2.04 -2.28 10.56 9.52 9.7 29.79 1655503798.3651102
-0.1 -0.13 -2.04 -2.27 11.66 9.22 9.22 30.09 1655503798.3660831
-0.1 -0.13 -2.03 -2.27 11.9 9.64 9.52 31.07 1655503798.3670843
-0.1 -0.13 -2.04 -2.27 10.99 9.64 9.16 29.79 1655503798.3680673
-0.11 -0.13 -2.04 -2.27 12.33 8.85 9.52 30.7 1655503798.3735342
-0.1 -0.13 -2.04 -2.27 10.8 8.0 8.18 26.98 1655503798.3743296
-0.1 -0.13 -2.04 -2.27 10.38 8.42 9.4 28.2 1655503798.3751252
-0.1 -0.13 -2.04 -2.27 11.23 9.77 9.52 30.52 1655503798.3779852
-0.11 -0.13 -2.04 -2.27 11.35 8.97 8.54 28.87 1655503798.3812263
-0.1 -0.13 -2.03 -2.26 12.7 9.58 7.93 30.21 1655503798.3845577
-0.1 -0.13 -2.04 -2.26 11.72 7.69 8.91 28.32 1655503798.3878975
-0.1 -0.13 -2.03 -2.27 11.84 9.46 9.64 30.94 1655503798.391191
-0.1 -0.13 -2.03 -2.26 12.02 8.91 8.85 29.79 1655503798.3945339
-0.1 -0.13 -2.03 -2.27 13.31 10.93 9.22 33.45 1655503798.3978655
-0.1 -0.12 -2.03 -2.26 11.96 9.58 10.56 32.1 1655503798.4015434
-0.1 -0.13 -2.04 -2.27 13.79 9.7 9.52 33.02 1655503798.4106503
-0.1 -0.13 -2.04 -2.27 12.45 9.4 10.25 32.1 1655503798.4114084
-0.1 -0.13 -2.03 -2.26 13.49 9.52 9.58 32.59 1655503798.4121144
-0.1 -0.12 -2.04 -2.26 12.82 10.86 8.85 32.53 1655503798.416609
-0.1 -0.13 -2.04 -2.27 14.04 9.46 9.46 32.96 1655503798.4182086
-0.1 -0.13 -2.04 -2.27 14.83 10.25 9.03 34.12 1655503798.421133
-0.1 -0.13 -2.03 -2.26 15.69 10.38 9.34 35.4 1655503798.4243314
-0.1 -0.13 -2.04 -2.27 14.04 11.29 9.22 34.55 1655503798.4277112
-0.09 -0.13 -2.04 -2.26 14.16 10.68 9.28 34.12 1655503798.4310124
-0.1 -0.13 -2.04 -2.27 12.63 10.62 10.01 33.26 1655503798.43437
-0.1 -0.13 -2.04 -2.27 13.85 9.95 9.52 33.33 1655503798.4376047
-0.1 -0.13 -2.04 -2.27 14.89 10.86 9.03 34.79 1655503798.441136
-0.1 -0.13 -2.04 -2.27 13.98 10.31 9.09 33.39 1655503798.4444118
-0.1 -0.13 -2.04 -2.27 12.88 10.62 8.61 32.1 1655503798.4477367
-0.1 -0.13 -2.04 -2.28 12.45 10.13 8.48 31.07 1655503798.4527411
-0.1 -0.13 -2.03 -2.27 13.31 9.83 9.22 32.35 1655503798.4658897
-0.1 -0.13 -2.04 -2.27 12.94 10.01 8.91 31.86 1655503798.4669955
-0.1 -0.13 -2.04 -2.28 12.94 10.74 8.79 32.47 1655503798.468087
-0.1 -0.13 -2.04 -2.27 13.61 10.62 9.03 33.26 1655503798.469248
-0.1 -0.12 -2.04 -2.27 12.51 11.05 8.3 31.86 1655503798.4748714
-0.1 -0.13 -2.03 -2.27 11.9 10.74 8.73 31.37 1655503798.4756892
-0.1 -0.13 -2.04 -2.27 11.29 8.91 9.22 29.42 1655503798.4765453
-0.1 -0.13 -2.04 -2.27 10.38 8.61 9.64 28.63 1655503798.4773078
-0.11 -0.13 -2.04 -2.27 10.99 9.77 9.77 30.52 1655503798.4805174
-0.1 -0.13 -2.04 -2.27 11.66 8.73 9.46 29.85 1655503798.4840305
-0.1 -0.13 -2.04 -2.28 10.8 9.09 9.77 29.66 1655503798.4871354
-0.1 -0.13 -2.04 -2.27 9.95 10.31 8.42 28.69 1655503798.49053
-0.1 -0.13 -2.05 -2.28 10.99 10.38 9.89 31.25 1655503798.493842
-0.1 -0.13 -2.04 -2.27 10.86 10.93 9.89 31.68 1655503798.4971251
-0.1 -0.13 -2.04 -2.26 12.51 11.05 8.67 32.23 1655503798.5005488
-0.1 -0.13 -2.04 -2.27 12.51 9.89 9.46 31.86 1655503798.5062816
-0.11 -0.12 -2.04 -2.27 13.37 10.74 8.73 32.84 1655503798.5070264
-0.1 -0.13 -2.04 -2.27 13.49 10.13 9.34 32.96 1655503798.5103483
-0.1 -0.13 -2.04 -2.27 12.33 9.22 8.85 30.4 1655503798.5136726
-0.1 -0.13 -2.04 -2.26 13.37 9.34 10.19 32.9 1655503798.5169718
-0.1 -0.13 -2.04 -2.27 12.94 10.5 9.28 32.71 1655503798.5204139
-0.1 -0.13 -2.04 -2.27 14.53 9.09 8.36 31.98 1655503798.5235581
-0.1 -0.13 -2.04 -2.27 12.02 10.25 8.3 30.58 1655503798.5270493
-0.1 -0.13 -2.03 -2.26 11.47 10.68 8.12 30.27 1655503798.5301964
-0.1 -0.13 -2.04 -2.27 13.85 10.62 9.52 34.0 1655503798.5337217
-0.1 -0.13 -2.04 -2.27 13.73 9.28 8.42 31.43 1655503798.536851
-0.1 -0.13 -2.04 -2.27 13.85 9.7 8.91 32.47 1655503798.5402834
-0.1 -0.13 -2.04 -2.26 12.51 9.46 8.85 30.82 1655503798.5435069
-0.1 -0.13 -2.04 -2.27 13.18 10.86 9.09 33.14 1655503798.5470052
-0.1 -0.13 -2.04 -2.26 13.43 10.13 10.31 33.87 1655503798.5502703
-0.1 -0.13 -2.04 -2.27 14.4 10.86 10.19 35.46 1655503798.560802
-0.1 -0.13 -2.04 -2.27 14.59 8.85 9.83 33.26 1655503798.5617862
-0.1 -0.13 -2.04 -2.27 13.37 9.09 9.52 31.98 1655503798.5625496
-0.1 -0.13 -2.04 -2.27 14.59 9.77 8.36 32.71 1655503798.5636008
-0.1 -0.13 -2.04 -2.28 13.31 9.4 9.28 31.98 1655503798.5680542
-0.1 -0.13 -2.04 -2.27 11.78 10.8 9.46 32.04 1655503798.5701375
-0.1 -0.13 -2.04 -2.27 12.88 10.86 9.03 32.78 1655503798.5735848
-0.1 -0.13 -2.04 -2.28 13.12 8.97 7.51 29.6 1655503798.5768921
-0.1 -0.13 -2.04 -2.27 12.45 10.13 10.31 32.9 1655503798.5801408
-0.1 -0.13 -2.04 -2.27 12.15 9.7 9.16 31.01 1655503798.5834565
-0.1 -0.13 -2.04 -2.27 12.21 10.01 8.67 30.88 1655503798.586793
-0.11 -0.13 -2.04 -2.28 13.0 9.52 9.52 32.04 1655503798.5901403
-0.1 -0.13 -2.04 -2.27 13.18 9.83 9.95 32.96 1655503798.593397
-0.1 -0.13 -2.04 -2.27 13.06 10.93 9.28 33.26 1655503798.5968282
-0.11 -0.13 -2.04 -2.27 11.72 9.77 9.22 30.7 1655503798.6000638
-0.1 -0.13 -2.04 -2.28 12.76 11.05 8.85 32.65 1655503798.611777
-0.1 -0.13 -2.03 -2.27 12.27 10.38 8.3 30.94 1655503798.6125424
-0.1 -0.13 -2.04 -2.27 11.23 8.48 8.97 28.69 1655503798.6132793
-0.1 -0.13 -2.04 -2.27 12.27 9.95 8.85 31.07 1655503798.6140232
-0.1 -0.12 -2.04 -2.26 12.39 10.31 9.83 32.53 1655503798.619583
-0.11 -0.12 -2.04 -2.27 13.37 9.34 10.01 32.71 1655503798.620353
-0.1 -0.13 -2.04 -2.27 12.51 10.19 9.58 32.29 1655503798.6234426
-0.1 -0.13 -2.04 -2.27 13.61 9.64 9.58 32.84 1655503798.6265829
-0.1 -0.13 -2.04 -2.26 13.61 9.34 9.58 32.53 1655503798.629879
-0.1 -0.1 -2.04 -2.24 11.9 9.34 9.77 31.01 1655503798.6332252
-0.1 -0.13 -2.03 -2.26 10.99 9.77 8.54 29.3 1655503798.6364572
-0.1 -0.13 -2.04 -2.27 11.11 10.86 9.34 31.31 1655503798.6398525
-0.1 -0.13 -2.04 -2.27 12.94 8.36 9.89 31.19 1655503798.643067
-0.1 -0.13 -2.04 -2.26 12.7 10.44 10.01 33.14 1655503798.6465063
-0.1 -0.13 -2.04 -2.26 14.04 9.46 10.19 33.69 1655503798.6497781
-0.1 -0.13 -2.04 -2.27 13.37 9.34 9.28 31.98 1655503798.661374
-0.1 -0.13 -2.04 -2.26 12.21 9.4 9.77 31.37 1655503798.6621425
-0.1 -0.13 -2.03 -2.27 11.96 9.03 8.79 29.79 1655503798.6629527
-0.1 -0.12 -2.04 -2.27 12.94 10.68 8.54 32.17 1655503798.6637223
-0.11 -0.13 -2.04 -2.27 13.79 10.93 9.28 34.0 1655503798.6683373
-0.1 -0.13 -2.04 -2.27 13.55 10.68 8.73 32.96 1655503798.6696599
-0.1 -0.13 -2.04 -2.27 14.53 10.74 9.34 34.61 1655503798.6730218
-0.11 -0.13 -2.04 -2.28 13.61 10.68 8.79 33.08 1655503798.676344
-0.1 -0.13 -2.04 -2.26 13.37 11.05 9.7 34.12 1655503798.6797931
-0.1 -0.13 -2.04 -2.27 12.76 11.47 8.97 33.2 1655503798.6829202
-0.1 -0.13 -2.05 -2.28 13.43 10.44 8.06 31.92 1655503798.686234
-0.1 -0.13 -2.04 -2.27 13.43 10.38 8.91 32.71 1655503798.6895702
-0.1 -0.13 -2.04 -2.27 12.39 8.48 9.7 30.58 1655503798.6928
-0.1 -0.13 -2.03 -2.26 13.98 9.34 9.95 33.26 1655503798.6961184
-0.1 -0.13 -2.04 -2.27 13.85 9.89 9.64 33.39 1655503798.6994195
-0.1 -0.13 -2.04 -2.27 13.92 9.64 9.28 32.84 1655503798.7027328
-0.1 -0.13 -2.04 -2.27 13.18 9.83 9.64 32.65 1655503798.7120466
-0.1 -0.13 -2.04 -2.27 13.67 9.46 9.03 32.17 1655503798.7128181
-0.1 -0.13 -2.04 -2.27 13.37 9.64 9.46 32.47 1655503798.7135541
-0.1 -0.13 -2.05 -2.28 12.76 10.13 9.28 32.17 1655503798.7182274
-0.1 -0.13 -2.04 -2.27 13.55 9.03 9.7 32.29 1655503798.7201433
-0.1 -0.13 -2.04 -2.27 11.84 9.09 10.13 31.07 1655503798.7226644
-0.1 -0.13 -2.04 -2.27 12.21 8.61 8.91 29.72 1655503798.7260137
-0.1 -0.13 -2.03 -2.26 11.96 9.4 9.46 30.82 1655503798.7292848
-0.1 -0.13 -2.04 -2.27 12.08 10.5 8.42 31.01 1655503798.7327173
-0.1 -0.13 -2.04 -2.26 13.43 9.95 7.81 31.19 1655503798.7360892
-0.1 -0.13 -2.04 -2.26 11.54 9.09 9.95 30.58 1655503798.7392871
-0.1 -0.1 -2.04 -2.24 11.66 10.74 9.64 32.04 1655503798.742586
-0.1 -0.13 -2.04 -2.27 11.35 9.89 8.54 29.79 1655503798.7458806
-0.1 -0.13 -2.04 -2.27 11.84 9.16 8.91 29.91 1655503798.7491493
-0.1 -0.13 -2.04 -2.27 13.55 10.31 9.03 32.9 1655503798.76081
-0.1 -0.13 -2.04 -2.27 12.76 9.89 10.31 32.96 1655503798.761934
-0.11 -0.13 -2.04 -2.27 11.41 10.99 8.54 30.94 1655503798.7627535
-0.1 -0.13 -2.04 -2.27 12.15 8.79 9.64 30.58 1655503798.7636023
-0.1 -0.12 -2.04 -2.26 12.15 9.7 9.7 31.56 1655503798.7678988
-0.1 -0.12 -2.04 -2.27 10.68 8.85 9.4 28.93 1655503798.7690263
-0.1 -0.13 -2.04 -2.27 12.82 8.97 9.4 31.19 1655503798.7724247
-0.1 -0.13 -2.04 -2.27 13.31 10.31 8.54 32.17 1655503798.7756875
-0.1 -0.13 -2.04 -2.26 11.6 9.46 10.31 31.37 1655503798.779234
-0.1 -0.13 -2.04 -2.27 13.12 9.46 9.58 32.17 1655503798.7823198
-0.1 -0.13 -2.03 -2.26 12.08 8.91 8.73 29.72 1655503798.7858062
-0.1 -0.13 -2.03 -2.27 12.76 9.58 9.58 31.92 1655503798.7889404
-0.11 -0.13 -2.04 -2.27 12.63 9.4 9.64 31.68 1655503798.7922602
-0.1 -0.13 -2.04 -2.27 12.88 9.46 10.07 32.41 1655503798.7955928
-0.1 -0.13 -2.04 -2.27 12.15 9.22 10.01 31.37 1655503798.7989974
-0.1 -0.13 -2.04 -2.27 13.49 10.86 9.77 34.12 1655503798.80236
-0.1 -0.12 -2.04 -2.27 13.79 8.79 8.97 31.56 1655503798.8120542
-0.1 -0.13 -2.04 -2.27 13.79 10.01 7.02 30.82 1655503798.8128316
-0.1 -0.13 -2.04 -2.27 12.82 9.64 8.97 31.43 1655503798.8135624
-0.1 -0.13 -2.04 -2.27 12.33 10.31 8.42 31.07 1655503798.8181715
-0.11 -0.13 -2.04 -2.28 13.37 10.62 9.16 33.14 1655503798.8190491
-0.11 -0.13 -2.04 -2.27 13.43 10.31 9.95 33.69 1655503798.8221116
-0.1 -0.13 -2.04 -2.27 12.88 10.19 9.03 32.1 1655503798.825405
-0.1 -0.13 -2.04 -2.27 13.79 10.44 8.97 33.2 1655503798.828764
-0.1 -0.13 -2.04 -2.27 15.08 9.52 8.73 33.33 1655503798.831993
-0.1 -0.13 -2.04 -2.27 13.18 10.8 9.95 33.94 1655503798.835286
-0.1 -0.13 -2.04 -2.27 13.06 9.16 8.61 30.82 1655503798.8386283
-0.1 -0.13 -2.04 -2.27 12.33 9.09 9.09 30.52 1655503798.8420022
-0.1 -0.12 -2.04 -2.26 10.8 8.06 9.03 27.89 1655503798.8453002
-0.1 -0.13 -2.04 -2.27 12.02 9.89 9.77 31.68 1655503798.8486307
-0.11 -0.16 -2.04 -2.3 12.21 10.38 10.44 33.02 1655503798.8521323
-0.1 -0.13 -2.04 -2.27 13.06 8.61 9.4 31.07 1655503798.8617315
-0.1 -0.13 -2.04 -2.27 12.51 9.77 9.58 31.86 1655503798.8624935
-0.1 -0.13 -2.04 -2.27 12.7 9.52 8.06 30.27 1655503798.8632798
-0.1 -0.13 -2.04 -2.27 12.21 10.13 9.28 31.62 1655503798.8679767
-0.1 -0.13 -2.04 -2.26 12.76 10.07 8.85 31.68 1655503798.8687968
-0.11 -0.13 -2.04 -2.28 13.55 9.16 9.83 32.53 1655503798.8718526
-0.1 -0.13 -2.04 -2.27 12.21 9.28 9.4 30.88 1655503798.8751926
-0.1 -0.13 -2.04 -2.27 12.94 9.34 8.0 30.27 1655503798.878436
-0.1 -0.13 -2.04 -2.27 10.13 9.89 8.61 28.63 1655503798.8817546
-0.1 -0.13 -2.04 -2.27 11.47 9.4 8.61 29.48 1655503798.885013
-0.1 -0.12 -2.04 -2.26 12.45 10.86 8.85 32.17 1655503798.8883634
-0.1 -0.13 -2.04 -2.27 11.9 8.85 8.36 29.11 1655503798.8916392
-0.1 -0.13 -2.04 -2.27 12.27 9.34 8.36 29.97 1655503798.8950393
-0.1 -0.13 -2.04 -2.27 11.17 8.97 8.91 29.05 1655503798.8982067
-0.1 -0.13 -2.03 -2.26 12.08 9.89 9.22 31.19 1655503798.9054637
-0.1 -0.13 -2.04 -2.26 12.82 10.74 10.19 33.75 1655503798.9058106
-0.1 -0.13 -2.04 -2.28 11.11 10.31 9.83 31.25 1655503798.9092562
-0.1 -0.13 -2.04 -2.26 11.96 10.44 10.01 32.41 1655503798.9114115
-0.1 -0.13 -2.04 -2.27 13.0 9.89 9.89 32.78 1655503798.914766
-0.1 -0.13 -2.04 -2.27 12.94 10.01 8.48 31.43 1655503798.9179785
-0.1 -0.13 -2.03 -2.26 10.99 8.54 8.61 28.14 1655503798.9216642
-0.1 -0.13 -2.04 -2.26 11.84 9.09 9.22 30.15 1655503798.924898
-0.11 -0.13 -2.03 -2.27 12.88 9.89 9.58 32.35 1655503798.928133
-0.1 -0.13 -2.04 -2.28 12.76 10.68 8.67 32.1 1655503798.9313357
-0.1 -0.13 -2.03 -2.27 14.89 10.8 7.75 33.45 1655503798.9348378
-0.1 -0.13 -2.04 -2.27 13.98 10.62 9.4 34.0 1655503798.938066
-0.11 -0.13 -2.04 -2.27 15.08 10.01 9.09 34.18 1655503798.9414127
-0.1 -0.13 -2.04 -2.27 12.76 11.66 9.28 33.69 1655503798.9447057
-0.1 -0.13 -2.04 -2.26 13.67 11.29 9.03 34.0 1655503798.9478755
-0.1 -0.12 -2.04 -2.26 13.31 10.13 10.31 33.75 1655503798.951198
-0.1 -0.13 -2.04 -2.27 14.04 9.77 9.77 33.57 1655503798.9572155
-0.11 -0.12 -2.04 -2.27 13.61 11.17 9.83 34.61 1655503798.957869
-0.1 -0.13 -2.04 -2.27 12.02 9.46 8.67 30.15 1655503798.9614866
-0.1 -0.13 -2.04 -2.27 14.16 8.85 7.57 30.58 1655503798.9645724
-0.1 -0.13 -2.04 -2.27 13.31 10.25 8.91 32.47 1655503798.9678223
-0.1 -0.13 -2.04 -2.27 13.06 10.07 9.58 32.71 1655503798.9712236
-0.1 -0.13 -2.04 -2.28 13.31 10.86 9.83 34.0 1655503798.9744427
-0.1 -0.13 -2.04 -2.27 13.49 11.78 9.4 34.67 1655503798.977738
-0.11 -0.13 -2.04 -2.27 12.08 11.35 8.24 31.68 1655503798.981071
-0.1 -0.13 -2.04 -2.27 13.06 10.44 7.26 30.76 1655503798.9845412
-0.1 -0.13 -2.04 -2.27 13.43 10.07 8.54 32.04 1655503798.98775
-0.1 -0.13 -2.04 -2.28 12.45 10.38 10.25 33.08 1655503798.9913301
-0.1 -0.13 -2.04 -2.27 13.49 10.5 10.25 34.24 1655503798.994581
-0.1 -0.13 -2.04 -2.27 14.28 11.05 8.36 33.69 1655503798.998217
-0.1 -0.13 -2.04 -2.27 13.06 12.27 9.09 34.42 1655503799.002399
-0.1 -0.13 -2.04 -2.28 12.45 10.25 8.3 31.01 1655503799.014634
-0.1 -0.13 -2.04 -2.28 12.57 10.8 9.7 33.08 1655503799.0157807
-0.1 -0.13 -2.04 -2.28 12.94 10.5 9.28 32.71 1655503799.017143
-0.1 -0.13 -2.04 -2.27 12.76 10.19 8.24 31.19 1655503799.0246572
-0.11 -0.12 -2.04 -2.27 13.31 9.95 8.3 31.56 1655503799.0257738
-0.11 -0.13 -2.04 -2.27 13.67 8.54 9.95 32.17 1655503799.026834
-0.1 -0.13 -2.04 -2.27 11.66 9.52 9.46 30.64 1655503799.0279481
-0.1 -0.13 -2.04 -2.27 11.78 9.95 9.03 30.76 1655503799.0289936
-0.1 -0.13 -2.04 -2.27 11.54 9.89 9.83 31.25 1655503799.0310693
-0.1 -0.13 -2.04 -2.27 12.63 10.19 8.67 31.49 1655503799.0343604
-0.11 -0.13 -2.04 -2.27 12.15 8.48 9.16 29.79 1655503799.037677
-0.1 -0.13 -2.04 -2.26 12.15 9.58 8.67 30.4 1655503799.0409963
-0.1 -0.13 -2.04 -2.27 12.02 10.31 10.13 32.47 1655503799.044332
-0.1 -0.13 -2.04 -2.27 11.23 9.89 9.09 30.21 1655503799.0478342
-0.09 -0.13 -2.04 -2.27 11.96 10.19 9.46 31.62 1655503799.0523615
-0.13 -0.13 -2.04 -2.29 12.21 9.52 9.22 30.94 1655503799.0647209
-0.1 -0.13 -2.04 -2.27 12.45 9.03 9.46 30.94 1655503799.0657887
-0.1 -0.13 -2.04 -2.27 12.94 8.67 7.93 29.54 1655503799.0670576
-0.09 -0.12 -2.03 -2.25 11.9 9.46 9.4 30.76 1655503799.0683398
-0.1 -0.13 -2.04 -2.27 12.57 9.77 9.22 31.56 1655503799.0749679
-0.1 -0.13 -2.04 -2.27 13.85 10.99 8.61 33.45 1655503799.0764194
-0.1 -0.13 -2.03 -2.26 13.12 10.01 8.3 31.43 1655503799.0774932
-0.1 -0.13 -2.04 -2.27 12.45 10.5 8.79 31.74 1655503799.0785747
-0.1 -0.13 -2.04 -2.27 14.04 10.8 9.58 34.42 1655503799.0811322
-0.1 -0.13 -2.04 -2.27 11.72 10.38 9.77 31.86 1655503799.084107
-0.1 -0.13 -2.03 -2.27 14.4 10.93 9.09 34.42 1655503799.0875561
-0.11 -0.12 -2.04 -2.27 12.39 11.66 10.01 34.06 1655503799.0907323
-0.1 -0.13 -2.04 -2.27 12.21 9.46 10.19 31.86 1655503799.094063
-0.1 -0.13 -2.04 -2.26 13.12 9.95 8.61 31.68 1655503799.0972922
-0.1 -0.13 -2.04 -2.27 13.06 9.95 9.4 32.41 1655503799.1006243
-0.1 -0.13 -2.04 -2.26 14.1 9.22 9.7 33.02 1655503799.1039581
-0.11 -0.13 -2.04 -2.27 12.39 9.83 10.01 32.23 1655503799.1154935
-0.1 -0.13 -2.04 -2.27 14.47 9.83 8.24 32.53 1655503799.1165357
-0.1 -0.13 -2.04 -2.27 13.73 10.31 8.91 32.96 1655503799.117568
-0.1 -0.13 -2.04 -2.27 13.98 8.54 10.13 32.65 1655503799.118595
-0.11 -0.13 -2.04 -2.28 13.79 9.77 9.4 32.96 1655503799.1235814
-0.1 -0.13 -2.04 -2.28 13.31 10.13 9.52 32.96 1655503799.1257575
-0.1 -0.13 -2.04 -2.27 14.77 10.25 9.4 34.42 1655503799.1272008
-0.1 -0.13 -2.04 -2.28 14.89 10.19 10.25 35.34 1655503799.1304884
-0.1 -0.13 -2.04 -2.27 14.59 9.77 9.28 33.63 1655503799.133783
-0.1 -0.13 -2.04 -2.27 13.24 10.07 9.58 32.9 1655503799.1371293
-0.1 -0.13 -2.04 -2.27 14.16 10.62 9.22 34.0 1655503799.1404266
-0.1 -0.13 -2.04 -2.27 14.28 10.19 9.09 33.57 1655503799.1437485
-0.1 -0.13 -2.04 -2.27 13.18 11.54 8.73 33.45 1655503799.1471
-0.1 -0.13 -2.04 -2.28 14.04 9.83 10.07 33.94 1655503799.1521735
-0.1 -0.13 -2.04 -2.26 13.92 10.19 8.73 32.84 1655503799.1635704
-0.11 -0.13 -2.04 -2.28 12.88 10.56 9.28 32.71 1655503799.1646206
-0.1 -0.13 -2.04 -2.28 13.73 9.09 9.52 32.35 1655503799.1656299
-0.1 -0.13 -2.04 -2.27 14.65 8.36 9.09 32.1 1655503799.1666434
-0.1 -0.13 -2.04 -2.27 14.65 10.44 10.5 35.58 1655503799.1715295
-0.11 -0.13 -2.04 -2.27 14.1 10.56 10.8 35.46 1655503799.1730676
-0.1 -0.13 -2.04 -2.27 13.06 9.09 9.28 31.43 1655503799.1741083
-0.1 -0.13 -2.04 -2.28 12.21 10.44 9.09 31.74 1655503799.1769178
-0.1 -0.13 -2.04 -2.27 12.45 10.74 10.01 33.2 1655503799.1802216
-0.1 -0.13 -2.04 -2.27 12.33 8.36 9.77 30.46 1655503799.1834779
-0.1 -0.13 -2.04 -2.27 11.78 10.5 9.09 31.37 1655503799.1868093
-0.1 -0.13 -2.04 -2.27 13.12 10.07 9.22 32.41 1655503799.1901524
-0.1 -0.13 -2.04 -2.27 12.7 9.16 9.52 31.37 1655503799.193438
-0.1 -0.13 -2.04 -2.27 12.45 9.83 9.28 31.56 1655503799.1968105
-0.1 -0.13 -2.04 -2.27 12.76 9.89 8.79 31.43 1655503799.2001092
-0.1 -0.13 -2.04 -2.27 13.55 10.74 10.13 34.42 1655503799.2034771
-0.1 -0.13 -2.04 -2.27 11.9 9.83 9.34 31.07 1655503799.2144558
-0.1 -0.13 -2.04 -2.27 13.24 9.7 9.28 32.23 1655503799.21558
-0.1 -0.13 -2.04 -2.27 12.82 9.95 8.79 31.56 1655503799.2166119
-0.1 -0.13 -2.04 -2.27 13.43 9.16 10.01 32.59 1655503799.2214952
-0.1 -0.13 -2.04 -2.26 14.1 9.7 8.54 32.35 1655503799.2225802
-0.1 -0.13 -2.04 -2.28 13.31 9.77 9.09 32.17 1655503799.2236762
-0.11 -0.13 -2.04 -2.27 13.55 8.97 9.28 31.8 1655503799.226882
-0.1 -0.13 -2.04 -2.27 13.06 11.11 10.74 34.91 1655503799.2299688
-0.1 -0.13 -2.04 -2.27 14.47 9.46 9.34 33.26 1655503799.2332234
-0.11 -0.13 -2.04 -2.28 12.27 8.79 9.28 30.33 1655503799.2365458
-0.1 -0.13 -2.04 -2.27 13.73 9.46 9.16 32.35 1655503799.2398694
-0.1 -0.13 -2.04 -2.27 13.31 9.46 9.7 32.47 1655503799.243219
-0.1 -0.12 -2.04 -2.26 13.37 8.85 9.03 31.25 1655503799.2464914
-0.1 -0.13 -2.04 -2.27 13.55 10.44 7.93 31.92 1655503799.2498221
-0.1 -0.13 -2.04 -2.27 12.57 10.99 9.64 33.2 1655503799.2531972
-0.1 -0.13 -2.04 -2.26 13.61 10.99 8.73 33.33 1655503799.264138
-0.1 -0.13 -2.04 -2.27 12.15 9.89 9.89 31.92 1655503799.2651806
-0.1 -0.13 -2.04 -2.27 13.92 10.25 10.13 34.3 1655503799.2662375
-0.11 -0.13 -2.04 -2.27 12.21 10.01 9.22 31.43 1655503799.2713156
-0.11 -0.13 -2.04 -2.28 13.06 10.74 9.28 33.08 1655503799.2723758
-0.1 -0.13 -2.03 -2.26 12.94 10.86 8.24 32.04 1655503799.2734048
-0.1 -0.13 -2.04 -2.27 12.57 10.19 8.48 31.25 1655503799.2763495
-0.1 -0.13 -2.04 -2.27 13.85 10.01 9.52 33.39 1655503799.2796493
-0.1 -0.13 -2.04 -2.26 12.88 9.16 9.83 31.86 1655503799.2829714
-0.1 -0.13 -2.04 -2.27 13.85 9.4 8.73 31.98 1655503799.286268
-0.1 -0.13 -2.04 -2.27 13.24 9.58 9.22 32.04 1655503799.289568
-0.1 -0.13 -2.04 -2.28 12.08 9.89 9.52 31.49 1655503799.2929308
-0.1 -0.13 -2.04 -2.27 12.82 9.83 8.42 31.07 1655503799.2961802
-0.1 -0.13 -2.03 -2.26 13.0 8.61 9.09 30.7 1655503799.2994754
-0.11 -0.13 -2.04 -2.28 12.27 10.19 9.28 31.74 1655503799.302826
-0.1 -0.13 -2.04 -2.27 12.88 9.52 9.4 31.8 1655503799.313691
-0.1 -0.13 -2.04 -2.27 13.06 11.23 9.34 33.63 1655503799.3147507
-0.1 -0.13 -2.04 -2.28 12.33 10.99 9.03 32.35 1655503799.3158646
-0.1 -0.13 -2.04 -2.27 10.93 10.93 9.77 31.62 1655503799.3207617
-0.1 -0.13 -2.04 -2.28 11.47 9.95 9.95 31.37 1655503799.3217988
-0.1 -0.13 -2.04 -2.27 14.83 9.46 8.91 33.2 1655503799.3228114
-0.1 -0.13 -2.04 -2.27 13.49 9.22 9.83 32.53 1655503799.3261395
-0.1 -0.12 -2.03 -2.26 12.08 9.58 10.07 31.74 1655503799.3301563
-0.11 -0.13 -2.04 -2.27 11.29 10.19 8.48 29.97 1655503799.332756
-0.1 -0.13 -2.04 -2.27 13.24 9.83 8.54 31.62 1655503799.3363578
-0.11 -0.13 -2.04 -2.28 13.37 9.4 9.58 32.35 1655503799.3394
-0.11 -0.13 -2.04 -2.28 11.9 9.83 9.95 31.68 1655503799.3428922
-0.1 -0.13 -2.03 -2.27 12.7 10.01 8.73 31.43 1655503799.3460255
-0.1 -0.13 -2.04 -2.26 13.49 9.89 11.35 34.73 1655503799.3495972
-0.1 -0.13 -2.03 -2.27 11.78 9.64 9.77 31.19 1655503799.3533897
-0.1 -0.13 -2.04 -2.27 12.33 10.56 8.0 30.88 1655503799.3644242
-0.1 -0.12 -2.04 -2.26 12.57 10.62 9.16 32.35 1655503799.3654828
-0.09 -0.13 -2.04 -2.26 11.17 10.07 9.58 30.82 1655503799.3665197
-0.1 -0.13 -2.03 -2.26 10.8 10.25 7.87 28.93 1655503799.3676565
-0.1 -0.13 -2.03 -2.26 13.49 9.22 9.64 32.35 1655503799.372799
-0.1 -0.13 -2.04 -2.26 11.54 9.83 8.97 30.33 1655503799.374025
-0.1 -0.13 -2.04 -2.27 11.84 10.8 8.18 30.82 1655503799.3757534
-0.1 -0.13 -2.04 -2.27 11.9 9.95 8.73 30.58 1655503799.3793626
-0.11 -0.12 -2.04 -2.27 13.31 9.46 9.83 32.59 1655503799.3823493
-0.1 -0.12 -2.04 -2.27 12.33 9.4 9.89 31.62 1655503799.3856869
-0.1 -0.13 -2.04 -2.27 12.02 10.31 8.97 31.31 1655503799.3890061
-0.1 -0.13 -2.04 -2.26 14.04 10.8 8.85 33.69 1655503799.3923028
-0.1 -0.13 -2.04 -2.27 14.22 9.16 8.54 31.92 1655503799.3956587
-0.1 -0.13 -2.04 -2.27 13.12 10.44 8.36 31.92 1655503799.3991106
-0.1 -0.13 -2.04 -2.26 13.61 9.58 8.24 31.43 1655503799.4028153
-0.1 -0.13 -2.04 -2.28 11.96 10.38 8.91 31.25 1655503799.4140327
-0.1 -0.13 -2.04 -2.28 13.73 10.25 8.79 32.78 1655503799.4151647
-0.11 -0.13 -2.04 -2.28 12.08 10.25 10.07 32.41 1655503799.416233
-0.1 -0.13 -2.04 -2.27 13.12 9.09 10.31 32.53 1655503799.4211783
-0.1 -0.13 -2.04 -2.27 11.9 10.56 9.83 32.29 1655503799.4222448
-0.1 -0.13 -2.04 -2.27 11.96 9.46 9.64 31.07 1655503799.4233482
-0.1 -0.13 -2.04 -2.27 11.9 10.19 8.91 31.01 1655503799.4264796
-0.1 -0.13 -2.04 -2.27 12.88 9.16 9.89 31.92 1655503799.4295223
-0.1 -0.13 -2.04 -2.27 12.88 9.09 9.7 31.68 1655503799.4324384
-0.11 -0.13 -2.04 -2.28 14.1 10.25 10.56 34.91 1655503799.435683
-0.1 -0.13 -2.04 -2.27 11.84 11.29 8.24 31.37 1655503799.4388928
-0.11 -0.13 -2.04 -2.28 13.12 12.02 8.36 33.51 1655503799.4421542
-0.1 -0.13 -2.04 -2.27 12.7 10.62 10.31 33.63 1655503799.4457226
-0.1 -0.13 -2.03 -2.27 11.96 9.95 10.38 32.29 1655503799.4490314
-0.1 -0.13 -2.04 -2.27 12.27 8.79 8.97 30.03 1655503799.4527202
-0.1 -0.13 -2.04 -2.27 12.82 9.77 7.69 30.27 1655503799.463879
-0.1 -0.13 -2.04 -2.27 12.27 8.61 9.77 30.64 1655503799.4649413
-0.1 -0.13 -2.04 -2.26 12.33 7.63 10.8 30.76 1655503799.4660037
-0.1 -0.13 -2.04 -2.27 11.35 8.42 8.3 28.08 1655503799.4671185
-0.1 -0.13 -2.04 -2.27 12.39 9.52 9.09 31.01 1655503799.471938
-0.1 -0.13 -2.03 -2.26 12.02 9.83 9.64 31.49 1655503799.472997
-0.1 -0.13 -2.04 -2.27 12.33 7.93 8.48 28.75 1655503799.4751308
-0.1 -0.13 -2.05 -2.28 12.88 10.19 8.18 31.25 1655503799.4784882
-0.1 -0.13 -2.04 -2.27 13.18 10.5 8.61 32.29 1655503799.4821754
-0.1 -0.13 -2.04 -2.26 12.39 10.38 8.48 31.25 1655503799.486581
-0.1 -0.13 -2.04 -2.27 13.24 11.29 9.28 33.81 1655503799.4888127
-0.1 -0.13 -2.04 -2.27 13.55 10.44 9.58 33.57 1655503799.4918303
-0.1 -0.13 -2.04 -2.26 12.33 8.97 9.46 30.76 1655503799.495216
-0.1 -0.12 -2.04 -2.27 11.78 9.28 9.95 31.01 1655503799.4987087
-0.1 -0.13 -2.04 -2.27 12.21 9.83 9.4 31.43 1655503799.5025585
-0.1 -0.13 -2.04 -2.26 13.0 9.64 8.0 30.64 1655503799.5135794
-0.1 -0.13 -2.04 -2.27 13.12 8.73 9.64 31.49 1655503799.5146222
-0.1 -0.13 -2.04 -2.27 13.67 10.62 9.52 33.81 1655503799.515734
-0.1 -0.13 -2.03 -2.27 13.31 10.93 9.64 33.87 1655503799.5167792
-0.1 -0.13 -2.04 -2.27 12.33 11.84 9.52 33.69 1655503799.5217314
-0.1 -0.12 -2.04 -2.26 14.83 10.86 8.79 34.48 1655503799.5227911
-0.1 -0.13 -2.04 -2.27 30.15 10.19 9.28 49.62 1655503799.525278
-0.1 -0.13 -2.04 -2.27 13.55 10.01 8.54 32.1 1655503799.5288668
-0.1 -0.13 -2.04 -2.27 14.16 10.8 9.03 34.0 1655503799.5315137
-0.1 -0.13 -2.04 -2.27 13.67 10.5 9.09 33.26 1655503799.5351992
-0.1 -0.13 -2.04 -2.26 13.12 9.7 9.52 32.35 1655503799.538268
-0.1 -0.13 -2.04 -2.27 14.59 9.7 9.34 33.63 1655503799.5421321
-0.1 -0.13 -2.04 -2.27 14.1 8.61 8.85 31.56 1655503799.5451756
-0.1 -0.13 -2.04 -2.27 13.06 11.78 9.4 34.24 1655503799.5484734
-0.1 -0.13 -2.03 -2.26 13.43 9.4 9.03 31.86 1655503799.5523882
-0.1 -0.13 -2.04 -2.27 14.1 10.31 9.03 33.45 1655503799.5634477
-0.11 -0.13 -2.04 -2.27 13.24 10.5 9.4 33.14 1655503799.5645046
-0.1 -0.13 -2.04 -2.27 12.21 10.01 8.97 31.19 1655503799.5655506
-0.1 -0.13 -2.04 -2.26 12.57 10.68 8.97 32.23 1655503799.5665867
-0.1 -0.13 -2.03 -2.26 11.84 10.5 8.91 31.25 1655503799.5718923
-0.1 -0.13 -2.04 -2.27 12.63 8.97 9.34 30.94 1655503799.572961
-0.1 -0.13 -2.04 -2.27 12.51 7.93 9.83 30.27 1655503799.5746124
-0.1 -0.13 -2.04 -2.27 12.7 10.07 9.95 32.71 1655503799.577887
-0.1 -0.13 -2.04 -2.27 12.88 9.58 9.58 32.04 1655503799.5809178
-0.1 -0.13 -2.04 -2.27 11.66 9.89 8.85 30.4 1655503799.5840943
-0.1 -0.13 -2.03 -2.26 11.41 9.64 8.91 29.97 1655503799.587463
-0.11 -0.13 -2.04 -2.28 10.93 10.25 10.19 31.37 1655503799.5910037
-0.1 -0.13 -2.04 -2.27 11.17 10.13 8.61 29.91 1655503799.5943093
-0.1 -0.13 -2.04 -2.27 12.27 8.61 9.4 30.27 1655503799.597489
-0.1 -0.13 -2.04 -2.27 13.55 8.73 10.38 32.65 1655503799.6014497
-0.1 -0.13 -2.03 -2.26 12.08 9.64 9.95 31.68 1655503799.6056654
-0.1 -0.13 -2.04 -2.27 13.67 9.09 9.52 32.29 1655503799.6087537
-0.1 -0.12 -2.05 -2.27 12.7 9.34 9.46 31.49 1655503799.611411
-0.1 -0.13 -2.04 -2.27 13.24 10.25 10.01 33.51 1655503799.614328
-0.1 -0.13 -2.04 -2.27 13.37 9.16 9.95 32.47 1655503799.6176412
-0.1 -0.13 -2.04 -2.27 12.39 8.73 9.4 30.52 1655503799.6209176
-0.1 -0.13 -2.03 -2.26 13.24 10.07 8.67 31.98 1655503799.6243005
-0.1 -0.12 -2.04 -2.26 13.61 10.86 10.5 34.97 1655503799.6275873
-0.1 -0.13 -2.04 -2.27 13.31 10.5 8.79 32.59 1655503799.6313186
-0.1 -0.13 -2.04 -2.28 14.59 10.86 9.03 34.48 1655503799.6342697
-0.11 -0.13 -2.04 -2.27 13.49 9.22 8.54 31.25 1655503799.6377618
-0.1 -0.13 -2.04 -2.27 13.49 9.7 9.4 32.59 1655503799.6413507
-0.1 -0.13 -2.04 -2.27 13.67 10.5 9.58 33.75 1655503799.6446788
-0.1 -0.13 -2.04 -2.27 12.51 10.68 9.09 32.29 1655503799.6477804
-0.1 -0.13 -2.04 -2.27 12.57 9.83 9.77 32.17 1655503799.6529155
-0.1 -0.12 -2.04 -2.26 13.85 9.77 8.61 32.23 1655503799.6649404
-0.1 -0.13 -2.04 -2.27 14.59 11.11 8.91 34.61 1655503799.6661098
-0.1 -0.13 -2.04 -2.28 14.4 11.72 9.22 35.34 1655503799.6672196
-0.1 -0.13 -2.03 -2.27 12.7 10.5 9.03 32.23 1655503799.6682634
-0.1 -0.13 -2.04 -2.27 12.02 10.74 8.73 31.49 1655503799.6731832
-0.1 -0.13 -2.04 -2.27 13.85 11.29 9.09 34.24 1655503799.6742487
-0.1 -0.13 -2.04 -2.27 12.02 9.46 9.95 31.43 1655503799.6753402
-0.1 -0.13 -2.05 -2.28 11.96 9.95 8.91 30.82 1655503799.6776888
-0.1 -0.13 -2.04 -2.28 14.04 9.95 9.46 33.45 1655503799.681083
-0.1 -0.13 -2.04 -2.26 12.08 9.77 8.42 30.27 1655503799.684397
-0.1 -0.13 -2.04 -2.27 11.96 9.52 9.09 30.58 1655503799.6874084
-0.1 -0.13 -2.04 -2.28 14.28 8.12 8.79 31.19 1655503799.6907687
-0.11 -0.13 -2.04 -2.28 13.06 11.47 9.52 34.06 1655503799.694091
-0.1 -0.13 -2.04 -2.27 13.0 7.81 8.54 29.36 1655503799.697406
-0.11 -0.13 -2.05 -2.28 11.84 9.34 7.93 29.11 1655503799.7022603
-0.1 -0.13 -2.04 -2.27 11.9 9.34 8.61 29.85 1655503799.717477
-0.1 -0.13 -2.04 -2.27 12.15 10.07 9.95 32.17 1655503799.7185376
-0.1 -0.12 -2.04 -2.27 11.9 8.91 8.85 29.66 1655503799.7195814
-0.1 -0.13 -2.04 -2.27 12.33 11.47 8.79 32.59 1655503799.7206125
-0.1 -0.12 -2.04 -2.26 11.84 8.48 8.91 29.24 1655503799.7255769
-0.1 -0.13 -2.04 -2.26 12.82 8.79 8.42 30.03 1655503799.7266126
-0.1 -0.13 -2.04 -2.26 12.63 10.38 8.91 31.92 1655503799.727675
-0.1 -0.13 -2.04 -2.27 13.0 9.83 8.0 30.82 1655503799.728693
-0.1 -0.13 -2.04 -2.27 12.45 10.07 8.85 31.37 1655503799.7304964
-0.1 -0.13 -2.03 -2.27 13.43 8.42 9.09 30.94 1655503799.7341816
-0.11 -0.13 -2.04 -2.27 10.99 9.09 8.24 28.32 1655503799.7375467
-0.1 -0.13 -2.04 -2.27 13.61 9.34 8.61 31.56 1655503799.740763
-0.1 -0.13 -2.04 -2.27 12.45 9.58 9.7 31.74 1655503799.7437847
-0.1 -0.13 -2.04 -2.27 13.49 10.38 8.54 32.41 1655503799.7471905
-0.1 -0.13 -2.04 -2.26 11.9 9.16 7.14 28.2 1655503799.7523541
-0.1 -0.13 -2.03 -2.26 11.66 9.89 8.42 29.97 1655503799.7635725
-0.1 -0.13 -2.03 -2.26 11.41 10.8 7.57 29.79 1655503799.7646592
-0.1 -0.13 -2.04 -2.27 13.43 11.23 7.63 32.29 1655503799.7657235
-0.1 -0.13 -2.04 -2.27 12.51 8.91 8.61 30.03 1655503799.766779
-0.1 -0.13 -2.04 -2.27 11.54 7.93 8.12 27.59 1655503799.768022
-0.1 -0.13 -2.04 -2.27 13.92 10.38 8.42 32.71 1655503799.7730193
-0.1 -0.13 -2.04 -2.27 14.4 9.95 9.83 34.18 1655503799.7740796
-0.11 -0.13 -2.04 -2.27 13.55 10.68 10.19 34.42 1655503799.7768936
-0.11 -0.13 -2.04 -2.27 13.79 10.07 9.89 33.75 1655503799.780208
-0.1 -0.13 -2.04 -2.28 13.12 9.03 10.68 32.84 1655503799.783504
-0.1 -0.13 -2.04 -2.27 13.06 10.68 9.28 33.02 1655503799.786851
-0.09 -0.13 -2.04 -2.26 12.63 11.54 9.52 33.69 1655503799.7901723
-0.1 -0.13 -2.04 -2.26 13.24 12.57 8.42 34.24 1655503799.7934544
-0.1 -0.13 -2.05 -2.28 13.98 9.77 9.89 33.63 1655503799.7968693
-0.1 -0.13 -2.03 -2.27 13.06 8.97 10.19 32.23 1655503799.8018277
-0.1 -0.13 -2.04 -2.27 12.63 11.17 9.7 33.51 1655503799.8132298
-0.1 -0.13 -2.04 -2.27 13.31 10.13 9.16 32.59 1655503799.8143003
-0.11 -0.13 -2.04 -2.28 12.33 10.5 9.22 32.04 1655503799.815421
-0.1 -0.13 -2.04 -2.27 13.06 10.68 10.38 34.12 1655503799.816499
-0.1 -0.13 -2.04 -2.28 14.4 10.44 9.83 34.67 1655503799.821432
-0.1 -0.13 -2.04 -2.28 13.61 10.13 10.86 34.61 1655503799.8225362
-0.1 -0.12 -2.04 -2.27 12.45 11.29 9.52 33.26 1655503799.8236716
-0.1 -0.12 -2.04 -2.27 11.05 8.73 9.64 29.42 1655503799.8265305
-0.1 -0.12 -2.04 -2.27 12.02 9.7 9.58 31.31 1655503799.830281
-0.1 -0.12 -2.04 -2.27 11.6 9.77 9.34 30.7 1655503799.8330047
-0.1 -0.12 -2.04 -2.26 12.57 9.64 8.61 30.82 1655503799.8368807
-0.11 -0.13 -2.04 -2.28 11.66 10.5 9.09 31.25 1655503799.839605
-0.11 -0.13 -2.04 -2.27 13.55 8.61 8.85 31.01 1655503799.8433294
-0.1 -0.13 -2.04 -2.27 11.66 8.97 9.34 29.97 1655503799.8463902
-0.1 -0.13 -2.04 -2.27 13.24 8.73 10.62 32.59 1655503799.849997
-0.1 -0.13 -2.04 -2.27 12.39 10.8 10.07 33.26 1655503799.8542726
-0.11 -0.13 -2.04 -2.28 12.33 10.5 8.48 31.31 1655503799.8566349
-0.1 -0.13 -2.04 -2.27 14.59 8.61 9.46 32.65 1655503799.8594291
-0.1 -0.12 -2.04 -2.26 11.9 9.95 9.4 31.25 1655503799.8629127
-0.1 -0.13 -2.04 -2.27 12.08 9.4 8.12 29.6 1655503799.8662424
-0.1 -0.12 -2.04 -2.27 13.24 10.01 9.28 32.53 1655503799.8697925
-0.1 -0.13 -2.04 -2.27 12.57 9.4 8.85 30.82 1655503799.8727868
-0.1 -0.13 -2.04 -2.26 11.9 10.44 9.58 31.92 1655503799.8760996
-0.11 -0.13 -2.04 -2.28 12.51 10.44 8.79 31.74 1655503799.8793528
-0.1 -0.13 -2.04 -2.27 12.94 9.52 9.7 32.17 1655503799.883052
-0.1 -0.13 -2.03 -2.27 10.68 9.64 9.7 30.03 1655503799.8860385
-0.1 -0.13 -2.04 -2.27 13.98 10.62 8.85 33.45 1655503799.889664
-0.1 -0.13 -2.04 -2.26 12.33 10.44 9.28 32.04 1655503799.8930552
-0.1 -0.13 -2.04 -2.26 13.12 9.22 10.13 32.47 1655503799.8966007
-0.09 -0.13 -2.04 -2.26 13.67 9.58 9.4 32.65 1655503799.8994749
-0.1 -0.13 -2.03 -2.26 14.28 9.64 9.22 33.14 1655503799.9025328
-0.1 -0.13 -2.04 -2.27 12.7 9.7 9.03 31.43 1655503799.9126172
-0.1 -0.13 -2.04 -2.27 12.82 8.79 7.39 28.99 1655503799.913658
-0.1 -0.13 -2.04 -2.26 12.94 10.56 9.64 33.14 1655503799.91469
-0.1 -0.13 -2.04 -2.27 12.27 11.41 8.06 31.74 1655503799.9200225
-0.11 -0.13 -2.04 -2.28 12.63 10.56 8.36 31.56 1655503799.921099
-0.1 -0.13 -2.04 -2.27 13.92 10.5 10.07 34.48 1655503799.9227133
-0.1 -0.13 -2.04 -2.26 14.28 9.89 9.89 34.06 1655503799.9259868
-0.1 -0.13 -2.04 -2.27 12.63 11.47 9.34 33.45 1655503799.929302
-0.1 -0.13 -2.04 -2.27 13.18 11.41 9.22 33.81 1655503799.9327085
-0.1 -0.12 -2.04 -2.26 14.04 9.89 8.12 32.04 1655503799.936173
-0.1 -0.12 -2.04 -2.27 12.08 9.22 8.79 30.09 1655503799.9394681
-0.1 -0.13 -2.04 -2.27 14.16 11.29 7.51 32.96 1655503799.942723
-0.1 -0.13 -2.04 -2.27 13.18 9.7 7.75 30.64 1655503799.9460545
-0.1 -0.13 -2.04 -2.28 12.63 10.44 7.69 30.76 1655503799.9493353
-0.1 -0.13 -2.04 -2.27 11.9 8.0 8.67 28.56 1655503799.9526863
-0.11 -0.13 -2.04 -2.28 12.27 9.52 8.54 30.33 1655503799.9641595
-0.1 -0.13 -2.04 -2.28 14.59 11.29 7.2 33.08 1655503799.965221
-0.11 -0.13 -2.04 -2.27 12.45 9.77 8.79 31.01 1655503799.966257
-0.1 -0.13 -2.04 -2.27 12.57 9.7 9.58 31.86 1655503799.9674466
-0.1 -0.12 -2.04 -2.26 12.21 9.16 9.46 30.82 1655503799.9725137
-0.1 -0.13 -2.04 -2.27 13.06 9.4 9.03 31.49 1655503799.9735734
-0.1 -0.13 -2.04 -2.27 12.45 9.34 8.42 30.21 1655503799.9757435
-0.1 -0.12 -2.04 -2.27 13.43 9.83 9.28 32.53 1655503799.9790957
-0.1 -0.13 -2.04 -2.27 12.7 10.01 8.48 31.19 1655503799.982372
-0.1 -0.13 -2.03 -2.27 12.57 10.25 8.79 31.62 1655503799.9857297
-0.1 -0.13 -2.04 -2.27 12.39 9.22 9.95 31.56 1655503799.9889903
-0.1 -0.13 -2.03 -2.27 12.15 9.34 9.7 31.19 1655503799.992299
-0.11 -0.13 -2.04 -2.28 15.44 9.22 10.74 35.4 1655503799.9956982
-0.11 -0.13 -2.04 -2.28 12.02 9.34 9.22 30.58 1655503799.9990997
-0.1 -0.13 -2.03 -2.27 12.27 9.64 8.54 30.46 1655503800.003104
-0.11 -0.13 -2.04 -2.28 12.94 10.38 9.34 32.65 1655503800.0141964
-0.1 -0.13 -2.04 -2.26 11.41 9.52 10.07 31.01 1655503800.0153165
-0.1 -0.13 -2.04 -2.26 13.79 9.4 10.01 33.2 1655503800.0163536
-0.1 -0.13 -2.04 -2.27 12.76 8.73 10.31 31.8 1655503800.0173998
-0.1 -0.13 -2.04 -2.27 13.12 9.83 9.09 32.04 1655503800.0224133
-0.1 -0.13 -2.04 -2.28 12.7 10.44 8.54 31.68 1655503800.0235434
-0.1 -0.13 -2.04 -2.27 12.51 10.5 8.54 31.56 1655503800.0255146
-0.1 -0.13 -2.04 -2.26 14.04 10.62 9.46 34.12 1655503800.0288336
-0.1 -0.13 -2.04 -2.27 12.39 10.86 9.09 32.35 1655503800.0324907
-0.1 -0.13 -2.03 -2.27 12.94 10.86 9.03 32.84 1655503800.0357351
-0.1 -0.13 -2.03 -2.26 11.6 10.01 8.67 30.27 1655503800.0389395
-0.1 -0.13 -2.04 -2.27 14.34 10.68 10.01 35.03 1655503800.0421999
-0.1 -0.13 -2.04 -2.27 12.88 10.44 9.64 32.96 1655503800.045587
-0.1 -0.13 -2.04 -2.27 13.06 10.19 9.16 32.41 1655503800.0490773
-0.1 -0.13 -2.04 -2.26 12.57 11.17 9.7 33.45 1655503800.0526173
-0.1 -0.13 -2.04 -2.26 13.49 10.5 9.16 33.14 1655503800.063721
-0.1 -0.16 -2.04 -2.29 13.98 10.86 8.3 33.14 1655503800.0647914
-0.11 -0.13 -2.04 -2.28 14.22 9.58 7.63 31.43 1655503800.0658245
-0.1 -0.13 -2.04 -2.27 13.49 9.03 9.03 31.56 1655503800.0708103
-0.1 -0.13 -2.04 -2.27 13.73 11.47 9.7 34.91 1655503800.0719533
-0.11 -0.13 -2.04 -2.28 14.47 10.5 9.28 34.24 1655503800.073011
-0.1 -0.13 -2.04 -2.27 14.04 10.25 9.22 33.51 1655503800.0753198
-0.1 -0.13 -2.04 -2.27 13.06 9.34 9.28 31.68 1655503800.0787585
-0.1 -0.13 -2.04 -2.27 12.33 9.09 8.67 30.09 1655503800.0821743
-0.1 -0.13 -2.04 -2.27 12.51 10.07 9.22 31.8 1655503800.0850806
-0.1 -0.13 -2.05 -2.27 13.0 10.01 9.16 32.17 1655503800.0885088
-0.1 -0.13 -2.04 -2.26 11.84 8.48 9.46 29.79 1655503800.0917892
-0.1 -0.13 -2.04 -2.26 12.21 9.52 8.48 30.21 1655503800.095147
-0.11 -0.13 -2.04 -2.27 12.82 9.4 8.18 30.4 1655503800.0984316
-0.1 -0.13 -2.04 -2.27 13.31 10.44 9.28 33.02 1655503800.102274
-0.11 -0.12 -2.04 -2.27 10.86 10.5 8.73 30.09 1655503800.1134953
-0.1 -0.13 -2.04 -2.27 9.89 9.28 9.95 29.11 1655503800.1145124
-0.1 -0.13 -2.04 -2.27 12.08 9.83 9.34 31.25 1655503800.1156075
-0.1 -0.13 -2.04 -2.27 11.47 11.17 10.19 32.84 1655503800.1166768
-0.1 -0.13 -2.04 -2.27 11.17 10.19 8.61 29.97 1655503800.1216586
-0.1 -0.13 -2.04 -2.26 12.02 9.4 9.09 30.52 1655503800.1226864
-0.1 -0.13 -2.03 -2.26 12.76 11.6 8.73 33.08 1655503800.1253767
-0.1 -0.13 -2.04 -2.26 11.96 9.34 7.81 29.11 1655503800.1285791
-0.1 -0.13 -2.04 -2.27 12.82 10.56 9.58 32.96 1655503800.1316547
-0.1 -0.13 -2.04 -2.27 12.7 11.23 8.61 32.53 1655503800.135689
-0.11 -0.13 -2.04 -2.28 13.24 9.7 8.91 31.86 1655503800.1382992
-0.1 -0.13 -2.05 -2.28 13.73 10.13 9.52 33.39 1655503800.141824
-0.11 -0.14 -2.04 -2.28 14.65 9.89 9.89 34.42 1655503800.1451826
-0.1 -0.13 -2.04 -2.27 14.59 10.68 8.91 34.18 1655503800.1484714
-0.1 -0.13 -2.04 -2.27 13.55 10.13 8.48 32.17 1655503800.1524878
-0.1 -0.13 -2.04 -2.28 14.4 8.06 8.79 31.25 1655503800.1597438
-0.1 -0.13 -2.04 -2.26 14.34 10.07 8.24 32.65 1655503800.160057
-0.1 -0.13 -2.05 -2.28 12.57 9.09 9.64 31.31 1655503800.160978
-0.1 -0.13 -2.04 -2.27 12.88 10.13 9.89 32.9 1655503800.1642976
-0.11 -0.13 -2.04 -2.28 14.04 9.34 8.54 31.92 1655503800.1676073
-0.1 -0.13 -2.03 -2.27 11.41 9.09 8.0 28.5 1655503800.171204
-0.1 -0.13 -2.04 -2.27 10.31 8.48 9.28 28.08 1655503800.1744092
-0.1 -0.14 -2.04 -2.28 11.6 10.74 10.68 33.02 1655503800.1779313
-0.1 -0.13 -2.04 -2.27 12.08 9.7 9.58 31.37 1655503800.1814551
-0.1 -0.13 -2.04 -2.27 12.88 9.09 9.77 31.74 1655503800.184441
-0.1 -0.13 -2.03 -2.26 12.15 7.81 10.56 30.52 1655503800.1876068
-0.1 -0.13 -2.03 -2.26 11.9 9.28 9.34 30.52 1655503800.1911168
-0.09 -0.12 -2.04 -2.26 13.12 9.03 8.91 31.07 1655503800.1946454
-0.1 -0.13 -2.04 -2.27 14.04 10.01 8.91 32.96 1655503800.1977239
-0.1 -0.13 -2.04 -2.27 13.73 8.97 8.48 31.19 1655503800.2025318
-0.1 -0.13 -2.05 -2.27 11.6 10.13 8.79 30.52 1655503800.2106142
-0.11 -0.13 -2.04 -2.27 13.85 9.95 8.73 32.53 1655503800.211474
-0.11 -0.12 -2.04 -2.27 13.98 9.95 8.24 32.17 1655503800.2123175
-0.11 -0.13 -2.05 -2.28 13.73 8.97 9.46 32.17 1655503800.2171397
-0.1 -0.12 -2.04 -2.27 13.31 9.46 9.89 32.65 1655503800.2179415
-0.1 -0.13 -2.04 -2.27 13.49 9.4 10.25 33.14 1655503800.2216017
-0.1 -0.14 -2.04 -2.29 14.4 9.83 10.86 35.1 1655503800.2245889
-0.1 -0.14 -2.05 -2.28 15.44 8.36 9.89 33.69 1655503800.2276745
-0.1 -0.12 -2.04 -2.26 15.14 7.81 8.91 31.86 1655503800.231636
-0.09 -0.13 -2.05 -2.27 14.1 7.32 8.91 30.33 1655503800.234617
-0.1 -0.13 -2.03 -2.25 13.73 7.75 8.91 30.4 1655503800.2380052
-0.1 -0.12 -2.04 -2.27 13.67 10.86 8.79 33.33 1655503800.2412832
-0.1 -0.12 -2.04 -2.26 12.15 7.87 8.42 28.44 1655503800.244552
-0.11 -0.12 -2.03 -2.26 11.41 8.73 8.36 28.5 1655503800.2476635
-0.11 -0.13 -2.01 -2.25 12.45 9.52 8.24 30.21 1655503800.2521136
-0.11 -0.13 -2.03 -2.27 13.43 9.34 8.61 31.37 1655503800.2633495
-0.11 -0.13 -2.04 -2.28 12.76 8.12 8.91 29.79 1655503800.2644017
-0.12 -0.13 -2.03 -2.29 10.5 7.69 9.77 27.95 1655503800.265447
-0.11 -0.13 -2.03 -2.28 12.57 9.89 9.34 31.8 1655503800.2664833
-0.11 -0.13 -2.03 -2.27 13.18 11.66 9.64 34.48 1655503800.2714608
-0.1 -0.12 -2.03 -2.26 14.1 10.5 9.46 34.06 1655503800.2725286
-0.1 -0.12 -2.04 -2.27 14.16 10.25 10.31 34.73 1655503800.2739933
-0.1 -0.12 -2.04 -2.26 15.2 10.01 9.03 34.24 1655503800.2785246
-0.11 -0.12 -2.04 -2.27 14.83 8.85 8.06 31.74 1655503800.2811675
-0.1 -0.12 -2.04 -2.26 14.16 8.48 9.4 32.04 1655503800.284329
-0.11 -0.12 -2.04 -2.27 15.01 11.23 8.67 34.91 1655503800.2876773
-0.11 -0.12 -2.04 -2.27 30.94 9.89 8.79 49.62 1655503800.2909982
-0.1 -0.13 -2.04 -2.28 15.14 9.09 9.34 33.57 1655503800.2942886
-0.11 -0.13 -2.04 -2.28 14.95 9.09 9.22 33.26 1655503800.2973747
-0.1 -0.12 -2.04 -2.27 14.04 9.77 9.28 33.08 1655503800.3020306
-0.1 -0.13 -2.04 -2.27 14.65 9.09 10.74 34.48 1655503800.3135047
-0.1 -0.12 -2.04 -2.27 14.16 9.28 11.05 34.48 1655503800.3145757
-0.09 -0.13 -2.04 -2.26 15.01 6.96 10.07 32.04 1655503800.3157022
-0.1 -0.12 -2.04 -2.26 16.72 7.87 9.7 34.3 1655503800.3167462
-0.1 -0.13 -2.04 -2.27 19.84 9.22 8.24 37.29 1655503800.3216753
-0.11 -0.12 -2.04 -2.27 20.02 11.23 8.73 39.98 1655503800.3227327
-0.11 -0.12 -2.04 -2.27 15.01 9.77 8.36 33.14 1655503800.3238237
-0.11 -0.13 -2.03 -2.27 10.31 8.0 9.52 27.83 1655503800.3271456
-0.11 -0.13 -2.04 -2.27 8.42 9.89 9.52 27.83 1655503800.3307574
-0.09 -0.13 -2.06 -2.28 9.95 6.71 8.54 25.21 1655503800.3338554
-0.09 -0.11 -2.04 -2.25 9.16 4.39 8.91 22.46 1655503800.338995
-0.1 -0.14 -2.04 -2.28 6.41 6.96 8.36 21.73 1655503800.3403172
-0.1 -0.14 -2.01 -2.25 6.35 5.86 9.58 21.79 1655503800.343948
-0.07 -0.12 -2.03 -2.22 7.57 9.52 9.34 26.43 1655503800.3471055
-0.09 -0.13 -2.07 -2.29 9.28 7.87 9.89 27.04 1655503800.352059
-0.09 -0.13 -2.01 -2.23 8.42 6.04 10.25 24.72 1655503800.3673291
-0.09 -0.14 -2.04 -2.28 8.48 8.91 9.28 26.67 1655503800.3683438
-0.1 -0.12 -2.04 -2.26 12.76 6.9 8.79 28.44 1655503800.369351
-0.09 -0.13 -2.03 -2.25 11.41 8.42 8.97 28.81 1655503800.3704813
-0.09 -0.14 -2.05 -2.29 14.34 8.48 8.54 31.37 1655503800.3755672
-0.09 -0.15 -2.06 -2.31 18.68 9.34 9.22 37.23 1655503800.3765917
-0.09 -0.13 -2.05 -2.28 24.11 8.42 8.48 41.02 1655503800.3775985
-0.1 -0.14 -2.05 -2.29 23.07 8.67 7.93 39.67 1655503800.3786607
-0.11 -0.14 -2.05 -2.29 18.37 9.22 9.77 37.35 1655503800.379928
-0.11 -0.14 -2.07 -2.31 14.16 8.24 10.25 32.65 1655503800.3832002
-0.1 -0.1 -2.06 -2.26 8.73 4.88 9.52 23.13 1655503800.3865333
-0.1 -0.12 -2.03 -2.25 3.36 4.27 10.56 18.19 1655503800.3898492
-0.09 -0.14 -2.01 -2.25 1.4 3.42 10.8 15.63 1655503800.3931522
-0.09 -0.12 -1.98 -2.2 -1.22 5.68 8.67 13.12 1655503800.3965666
-0.1 -0.13 -2.03 -2.26 14.47 7.26 10.25 31.98 1655503800.3998995
-0.1 -0.13 -1.97 -2.19 2.32 7.75 9.22 19.29 1655503800.406385
-0.1 -0.14 -2.01 -2.25 9.4 12.94 9.77 32.1 1655503800.406828
-0.09 -0.1 -2.01 -2.2 16.6 12.08 8.67 37.35 1655503800.4100308
-0.09 -0.12 -2.02 -2.23 21.12 15.99 8.79 45.9 1655503800.4131877
-0.1 -0.13 -2.03 -2.26 23.44 16.3 9.03 48.77 1655503800.4165754
-0.1 -0.11 -2.03 -2.24 26.79 16.91 9.64 53.34 1655503800.4196968
-0.1 -0.12 -2.06 -2.28 24.72 17.82 8.3 50.84 1655503800.423113
-0.11 -0.12 -2.09 -2.33 23.62 15.01 8.85 47.49 1655503800.4267788
-0.11 -0.1 -2.08 -2.3 22.4 12.51 7.93 42.85 1655503800.4301355
-0.1 -0.12 -2.09 -2.31 21.73 10.56 8.48 40.77 1655503800.4335113
-0.11 -0.13 -2.05 -2.28 18.31 9.46 8.06 35.83 1655503800.4368446
-0.11 -0.12 -2.07 -2.3 15.01 8.54 8.85 32.41 1655503800.4402933
-0.11 -0.12 -2.07 -2.3 14.83 8.24 10.01 33.08 1655503800.4436967
-0.11 -0.11 -2.05 -2.28 15.63 6.96 9.46 32.04 1655503800.4467711
-0.12 -0.13 -2.03 -2.28 15.44 7.32 8.54 31.31 1655503800.452008
-0.11 -0.13 -2.04 -2.28 14.53 9.4 9.09 33.02 1655503800.4530623
-0.11 -0.12 -2.02 -2.26 15.08 7.45 8.18 30.7 1655503800.464199
-0.12 -0.13 -2.03 -2.28 15.69 9.77 7.87 33.33 1655503800.4652414
-0.12 -0.13 -2.04 -2.29 14.47 8.91 9.09 32.47 1655503800.4662623
-0.12 -0.13 -2.03 -2.28 15.32 8.48 8.91 32.71 1655503800.4714139
-0.11 -0.13 -2.04 -2.29 13.06 9.28 9.03 31.37 1655503800.4724882
-0.12 -0.12 -2.03 -2.27 11.84 9.64 9.7 31.19 1655503800.473526
-0.11 -0.13 -2.05 -2.28 9.77 9.77 10.68 30.21 1655503800.4766295
-0.11 -0.12 -2.07 -2.3 10.01 7.69 9.95 27.65 1655503800.479683
-0.11 -0.12 -2.06 -2.29 11.29 7.93 8.73 27.95 1655503800.482955
-0.11 -0.12 -2.06 -2.29 11.78 4.64 9.22 25.63 1655503800.486577
-0.11 -0.12 -2.06 -2.3 11.23 6.35 7.87 25.45 1655503800.4897401
-0.1 -0.12 -2.09 -2.31 9.4 6.16 10.74 26.31 1655503800.493224
-0.1 -0.09 -2.05 -2.24 5.07 4.94 10.19 20.2 1655503800.496586
-0.12 -0.11 -2.06 -2.3 3.36 4.76 10.19 18.31 1655503800.4996388
-0.09 -0.12 -2.05 -2.26 2.26 1.59 9.46 13.31 1655503800.5036669
-0.09 -0.12 -2.03 -2.24 0.37 1.95 8.79 11.11 1655503800.5158536
-0.09 -0.11 -2.0 -2.21 0.67 2.87 8.42 11.96 1655503800.5168638
-0.08 -0.12 -2.03 -2.23 4.58 3.17 8.48 16.24 1655503800.5178697
-0.08 -0.11 -1.99 -2.18 8.36 6.9 8.36 23.62 1655503800.5188744
-0.08 -0.13 -2.0 -2.21 9.77 8.79 9.4 27.95 1655503800.5237863
-0.08 -0.12 -1.99 -2.19 10.38 8.18 9.58 28.14 1655503800.5248268
-0.08 -0.12 -2.01 -2.21 14.34 11.54 8.48 34.36 1655503800.52587
-0.09 -0.12 -2.04 -2.25 17.76 12.88 8.54 39.18 1655503800.5301538
-0.09 -0.13 -2.0 -2.22 16.05 11.54 7.63 35.22 1655503800.5327435
-0.1 -0.11 -2.06 -2.27 17.82 11.6 9.22 38.64 1655503800.5363889
-0.09 -0.15 -2.07 -2.32 16.3 15.38 9.4 41.08 1655503800.539613
-0.1 -0.16 -2.02 -2.28 15.75 13.61 7.69 37.05 1655503800.542506
-0.1 -0.13 -2.01 -2.24 13.0 14.04 8.48 35.52 1655503800.5460222
-0.11 -0.12 -2.09 -2.32 13.67 12.94 10.01 36.62 1655503800.5493248
-0.1 -0.11 -2.02 -2.24 12.82 12.94 9.03 34.79 1655503800.5531397
-0.11 -0.14 -2.04 -2.28 14.83 14.77 10.19 39.79 1655503800.5685725
-0.1 -0.13 -2.04 -2.28 15.93 12.27 7.69 35.89 1655503800.569606
-0.1 -0.11 -2.01 -2.22 17.21 15.63 8.36 41.2 1655503800.5706816
-0.12 -0.14 -2.03 -2.29 16.85 12.7 8.61 38.15 1655503800.5759752
-0.1 -0.14 -2.04 -2.28 16.6 14.71 10.07 41.38 1655503800.5770557
-0.09 -0.14 -2.08 -2.31 14.83 14.59 8.79 38.21 1655503800.5780888
-0.09 -0.11 -2.01 -2.22 13.0 14.47 10.38 37.84 1655503800.5792499
-0.1 -0.12 -2.03 -2.26 8.54 15.87 9.34 33.75 1655503800.5805857
-0.09 -0.13 -2.03 -2.25 9.22 14.34 9.46 33.02 1655503800.5826309
-0.08 -0.11 -2.0 -2.19 9.52 15.75 8.61 33.87 1655503800.5856917
-0.09 -0.13 -2.07 -2.3 11.29 13.37 8.18 32.84 1655503800.5889416
-0.08 -0.12 -2.04 -2.25 13.06 15.38 8.06 36.5 1655503800.5923197
-0.1 -0.13 -2.06 -2.29 16.36 15.63 8.0 39.98 1655503800.5955925
-0.1 -0.13 -2.02 -2.25 19.59 16.66 6.77 43.03 1655503800.5990434
-0.12 -0.13 -2.08 -2.33 21.67 17.94 8.61 48.22 1655503800.6027808
-0.11 -0.13 -2.05 -2.29 23.44 15.81 9.03 48.28 1655503800.614382
-0.11 -0.14 -2.08 -2.33 22.71 15.81 8.61 47.12 1655503800.615508
-0.12 -0.11 -2.1 -2.33 24.41 12.82 7.93 45.17 1655503800.6165535
-0.13 -0.13 -2.06 -2.32 24.35 12.08 6.84 43.27 1655503800.6176057
-0.12 -0.13 -2.07 -2.33 18.25 9.95 7.45 35.64 1655503800.6226218
-0.12 -0.13 -2.08 -2.33 12.82 6.71 7.32 26.86 1655503800.6237416
-0.13 -0.13 -2.09 -2.36 8.36 7.87 10.13 26.37 1655503800.6254156
-0.11 -0.11 -2.09 -2.3 6.96 4.52 8.42 19.9 1655503800.6288614
-0.11 -0.13 -2.02 -2.25 2.08 3.05 8.36 13.49 1655503800.6321542
-0.12 -0.14 -2.03 -2.3 0.43 3.48 9.22 13.12 1655503800.635638
-0.1 -0.14 -2.02 -2.26 1.04 5.8 9.52 16.36 1655503800.6388075
-0.11 -0.14 -2.02 -2.26 1.22 7.2 8.0 16.42 1655503800.6424987
-0.11 -0.14 -2.02 -2.27 3.6 3.97 8.79 16.36 1655503800.6456766
-0.1 -0.14 -2.04 -2.28 7.51 8.0 9.16 24.66 1655503800.648968
-0.1 -0.12 -2.02 -2.25 9.34 6.16 9.52 25.02 1655503800.6526392
-0.11 -0.13 -2.03 -2.27 8.54 7.63 9.7 25.88 1655503800.6640868
-0.09 -0.14 -2.05 -2.29 8.85 7.75 10.19 26.79 1655503800.6651092
-0.09 -0.13 -2.04 -2.26 9.34 8.06 9.09 26.49 1655503800.6661088
-0.09 -0.12 -2.06 -2.27 10.38 8.97 8.3 27.65 1655503800.6671867
-0.1 -0.12 -2.03 -2.25 9.77 7.08 8.61 25.45 1655503800.6720784
-0.09 -0.12 -2.05 -2.25 8.97 7.69 10.19 26.86 1655503800.6731136
-0.12 -0.11 -2.05 -2.28 5.07 4.58 10.38 20.02 1655503800.675211
-0.09 -0.12 -2.0 -2.21 3.36 4.33 9.09 16.78 1655503800.678429
-0.09 -0.12 -2.02 -2.23 0.92 5.43 10.01 16.36 1655503800.682018
-0.08 -0.1 -2.02 -2.2 2.62 3.66 9.16 15.44 1655503800.684993
-0.08 -0.12 -1.99 -2.19 4.03 7.32 9.58 20.94 1655503800.688855
-0.09 -0.14 -1.97 -2.19 8.3 10.19 9.16 27.65 1655503800.6917868
-0.08 -0.12 -1.98 -2.18 13.79 12.27 8.61 34.67 1655503800.695415
-0.08 -0.13 -2.0 -2.21 17.27 14.77 7.81 39.86 1655503800.6986954
-0.09 -0.13 -1.99 -2.22 21.18 16.3 8.42 45.9 1655503800.7024105
-0.1 -0.14 -2.02 -2.25 24.05 20.02 8.85 52.92 1655503800.7138822
-0.08 -0.13 -2.02 -2.23 27.53 19.47 8.36 55.36 1655503800.715008
-0.09 -0.12 -2.03 -2.25 27.16 19.65 9.09 55.91 1655503800.7160711
-0.1 -0.13 -2.06 -2.3 24.9 18.07 9.22 52.19 1655503800.717116
-0.11 -0.12 -2.06 -2.29 24.17 18.62 8.54 51.33 1655503800.72219
-0.1 -0.13 -2.08 -2.31 22.77 17.03 8.79 48.58 1655503800.7232752
-0.11 -0.13 -2.07 -2.31 22.09 15.26 8.67 46.02 1655503800.7248824
-0.11 -0.14 -2.07 -2.32 18.43 15.87 9.4 43.7 1655503800.7288253
-0.11 -0.13 -2.07 -2.31 17.46 14.4 9.52 41.38 1655503800.731671
-0.11 -0.13 -2.07 -2.31 16.36 12.08 8.42 36.87 1655503800.7352097
-0.11 -0.14 -2.05 -2.3 13.43 10.44 7.75 31.62 1655503800.7384832
-0.11 -0.14 -2.04 -2.29 12.27 9.7 9.52 31.49 1655503800.742102
-0.11 -0.14 -2.06 -2.3 10.62 11.35 9.7 31.68 1655503800.7450817
-0.11 -0.14 -2.04 -2.28 11.35 10.25 8.67 30.27 1655503800.7484403
-0.11 -0.14 -2.04 -2.29 10.8 10.56 9.46 30.82 1655503800.7531483
-0.11 -0.13 -2.03 -2.28 11.11 9.09 10.74 30.94 1655503800.7646117
-0.1 -0.14 -2.05 -2.29 11.17 8.73 10.5 30.4 1655503800.7656806
-0.1 -0.13 -2.04 -2.26 11.11 9.52 10.68 31.31 1655503800.7668104
-0.1 -0.13 -2.04 -2.27 9.83 9.95 10.25 30.03 1655503800.7679172
-0.1 -0.13 -2.06 -2.29 9.83 9.58 7.32 26.73 1655503800.773289
-0.1 -0.12 -2.06 -2.28 9.34 9.52 8.61 27.47 1655503800.7743957
-0.11 -0.13 -2.06 -2.3 9.34 6.96 8.61 24.9 1655503800.775459
-0.1 -0.12 -2.07 -2.29 9.34 6.77 9.46 25.57 1655503800.7780974
-0.1 -0.13 -2.06 -2.29 7.63 7.32 8.42 23.38 1655503800.7813337
-0.1 -0.13 -2.06 -2.3 7.26 5.92 9.03 22.22 1655503800.7844992
-0.11 -0.13 -2.05 -2.29 6.04 4.76 10.13 20.94 1655503800.7879763
-0.1 -0.13 -2.06 -2.29 6.84 2.56 10.44 19.84 1655503800.7917078
-0.1 -0.13 -2.04 -2.28 5.55 4.46 10.07 20.08 1655503800.794574
-0.1 -0.13 -2.03 -2.26 5.55 3.11 9.4 18.07 1655503800.797878
-0.1 -0.13 -2.02 -2.25 4.39 3.48 9.4 17.27 1655503800.8022757
-0.1 -0.13 -2.02 -2.25 7.63 4.64 10.56 22.83 1655503800.813626
-0.06 -0.14 -2.03 -2.23 10.07 3.66 8.06 21.79 1655503800.8146625
-0.07 -0.09 -1.96 -2.12 14.04 1.46 5.92 21.42 1655503800.8157356
-0.05 -0.11 -1.94 -2.1 15.99 10.13 1.71 27.83 1655503800.8167644
-0.03 -0.08 -1.96 -2.08 23.25 8.91 -2.87 29.3 1655503800.82185
-0.03 -0.08 -1.92 -2.03 29.05 12.45 -8.48 33.02 1655503800.8229358
-0.05 -0.09 -1.96 -2.1 36.25 13.43 -12.33 37.35 1655503800.8243408
-0.04 -0.08 -1.95 -2.07 39.98 15.32 -18.43 36.87 1655503800.827733
-0.06 -0.12 -1.99 -2.17 42.97 18.37 -23.62 37.72 1655503800.8310256
-0.07 -0.1 -1.95 -2.12 50.17 16.24 -26.37 40.04 1655503800.8343031
-0.07 -0.11 -1.94 -2.12 53.04 25.09 -28.44 49.68 1655503800.8381715
-0.09 -0.1 -1.98 -2.16 56.76 30.58 -30.46 56.88 1655503800.8413317
-0.09 -0.12 -1.96 -2.18 62.81 29.85 -29.48 63.17 1655503800.8450391
-0.09 -0.11 -1.96 -2.17 64.33 34.3 -31.19 67.44 1655503800.847722
-0.11 -0.13 -2.01 -2.25 66.96 37.72 -29.66 75.01 1655503800.852706
-0.13 -0.14 -1.98 -2.25 71.17 35.52 -25.82 80.87 1655503800.863901
-0.15 -0.16 -2.0 -2.31 70.98 41.81 -21.79 91.0 1655503800.8650007
-0.15 -0.16 -2.04 -2.35 71.66 45.41 -17.46 99.61 1655503800.866075
-0.16 -0.15 -2.09 -2.41 71.29 42.6 -11.72 102.17 1655503800.8672457
-0.17 -0.16 -2.07 -2.4 68.91 41.81 -7.14 103.58 1655503800.8723073
-0.18 -0.19 -2.1 -2.46 65.55 45.59 1.65 112.79 1655503800.8733773
-0.19 -0.17 -2.13 -2.5 59.75 42.91 10.5 113.16 1655503800.8744516
-0.19 -0.18 -2.16 -2.52 55.66 37.41 18.43 111.51 1655503800.8782337
-0.17 -0.16 -2.17 -2.5 47.67 34.0 24.23 105.9 1655503800.8807974
-0.16 -0.09 -2.21 -2.46 44.31 8.73 28.14 81.18 1655503800.884106
-0.14 -0.1 -2.22 -2.46 21.91 14.22 29.66 65.8 1655503800.8874495
-0.13 -0.17 -2.07 -2.37 -1.77 13.61 32.41 44.25 1655503800.890774
-0.15 -0.17 -2.08 -2.4 -17.09 10.07 36.74 29.72 1655503800.8940923
-0.16 -0.08 -2.25 -2.49 -18.68 -14.4 39.86 6.77 1655503800.8970194
-0.15 -0.15 -2.19 -2.49 -19.17 -9.16 45.9 17.58 1655503800.9004893
-0.17 -0.16 -2.06 -2.39 -31.92 -2.81 56.52 21.79 1655503800.905796
-0.17 -0.17 -2.08 -2.41 -37.41 -0.61 68.36 30.33 1655503800.907006
-0.13 -0.1 -2.08 -2.31 -41.81 0.31 70.07 28.56 1655503800.910589
-0.11 -0.11 -2.16 -2.38 -44.74 -9.03 59.57 5.8 1655503800.9138741
-0.07 -0.04 -2.13 -2.24 -44.68 -19.84 49.56 -14.95 1655503800.9172215
0.02 -0.05 -2.06 -2.1 -49.13 -19.1 40.53 -27.71 1655503800.9205143
-0.04 -0.04 -2.06 -2.13 -49.56 -24.48 31.56 -42.48 1655503800.9239576
-0.04 -0.07 -2.09 -2.2 -52.8 -25.82 25.51 -53.1 1655503800.9272318
0.02 -0.0 -2.06 -2.04 -53.65 -26.31 15.08 -64.88 1655503800.9303577
0.01 -0.03 -2.05 -2.07 -54.75 -31.01 4.15 -81.6 1655503800.9338133
-0.03 -0.07 -2.02 -2.12 -53.71 -30.03 -8.61 -92.35 1655503800.9371529
-0.03 -0.07 -1.97 -2.08 -50.96 -24.54 -14.28 -89.78 1655503800.9404724
-0.03 -0.07 -1.97 -2.07 -45.53 -24.84 -21.3 -91.67 1655503800.9439614
-0.07 -0.14 -2.03 -2.23 -40.22 -28.87 -23.74 -92.83 1655503800.9474905
-0.09 -0.12 -1.9 -2.12 -35.77 -27.28 -26.31 -89.36 1655503800.9504282
-0.09 -0.16 -1.94 -2.19 -30.76 -22.89 -26.49 -80.14 1655503800.9591355
-0.12 -0.15 -1.91 -2.18 -23.56 -21.48 -25.33 -70.37 1655503800.959934
-0.14 -0.19 -1.87 -2.2 -15.5 -9.52 -22.03 -47.06 1655503800.9609165
-0.15 -0.19 -1.89 -2.22 -6.53 -3.6 -15.01 -25.15 1655503800.9665525
-0.15 -0.18 -1.87 -2.2 3.91 2.38 -10.13 -3.85 1655503800.967617
-0.17 -0.19 -1.87 -2.23 12.63 8.3 -5.49 15.44 1655503800.9702528
-0.17 -0.21 -1.88 -2.26 21.85 16.42 1.53 39.79 1655503800.9735017
-0.14 -0.22 -1.9 -2.26 29.36 21.36 8.85 59.57 1655503800.9772272
-0.14 -0.18 -1.92 -2.25 37.05 25.57 13.73 76.35 1655503800.9806082
-0.13 -0.16 -1.92 -2.21 46.08 30.52 17.46 94.06 1655503800.98421
-0.11 -0.15 -1.95 -2.22 51.39 33.81 21.12 106.32 1655503800.987701
-0.11 -0.15 -1.96 -2.22 54.81 35.52 23.5 113.83 1655503800.9907124
-0.09 -0.13 -2.01 -2.23 58.23 39.25 24.96 122.44 1655503800.9939284
-0.09 -0.12 -2.03 -2.24 60.24 39.37 23.8 123.41 1655503800.9971616
-0.08 -0.12 -2.03 -2.23 61.58 38.88 22.03 122.5 1655503801.0024278
-0.08 -0.11 -2.06 -2.24 61.71 40.16 22.77 124.63 1655503801.013883
-0.08 -0.11 -2.06 -2.25 59.57 39.55 20.08 119.2 1655503801.0150273
-0.08 -0.1 -2.07 -2.25 57.5 38.21 16.78 112.49 1655503801.0161057
-0.08 -0.1 -2.09 -2.27 53.96 36.07 16.17 106.2 1655503801.0171835
-0.08 -0.1 -2.1 -2.27 52.19 33.14 13.61 98.94 1655503801.0222917
-0.08 -0.1 -2.1 -2.28 48.83 32.78 11.35 92.96 1655503801.0234296
-0.08 -0.1 -2.1 -2.29 44.43 26.49 8.3 79.22 1655503801.0244772
-0.09 -0.1 -2.11 -2.3 40.59 26.12 6.77 73.49 1655503801.0270565
-0.09 -0.11 -2.12 -2.32 33.08 23.68 6.16 62.93 1655503801.0303102
-0.1 -0.11 -2.12 -2.33 30.88 20.32 4.52 55.73 1655503801.034485
-0.11 -0.12 -2.12 -2.34 25.45 18.8 4.82 49.07 1655503801.037332
-0.11 -0.12 -2.11 -2.34 21.42 15.5 4.94 41.87 1655503801.0406256
-0.12 -0.12 -2.11 -2.35 18.01 13.92 5.98 37.9 1655503801.0436304
-0.17 -0.1 -2.11 -2.38 12.51 10.5 7.39 30.4 1655503801.0471885
-0.21 0.03 -2.31 -2.49 5.49 -1.28 6.04 10.25 1655503801.051959
-0.4 0.07 -1.93 -2.26 5.98 -3.91 8.42 10.5 1655503801.0680137
-0.4 -0.1 -1.79 -2.3 5.25 10.01 25.39 40.65 1655503801.0690672
-0.37 -0.1 -2.02 -2.48 8.85 20.39 43.7 72.94 1655503801.070103
-0.34 -0.1 -2.1 -2.54 21.3 7.75 61.34 90.39 1655503801.0711997
-0.24 -0.07 -1.99 -2.3 28.56 3.6 72.2 104.37 1655503801.0763218
-0.23 -0.06 -2.27 -2.57 0.12 12.02 70.86 83.01 1655503801.077366
-0.09 -0.05 -2.09 -2.23 8.73 6.41 61.04 76.17 1655503801.078388
-0.01 -0.01 -2.16 -2.18 -3.72 9.46 45.59 51.33 1655503801.0794415
0.02 -0.09 -2.19 -2.26 -4.03 4.76 32.47 33.2 1655503801.0804548
0.06 -0.14 -2.13 -2.22 -2.5 -3.78 20.45 14.16 1655503801.0836554
-0.02 -0.22 -1.98 -2.21 0.98 -6.1 15.75 10.62 1655503801.08671
-0.03 -0.28 -2.0 -2.31 6.96 -11.23 24.54 20.26 1655503801.0903203
-0.02 -0.29 -1.94 -2.26 5.13 3.72 34.12 42.97 1655503801.0936704
-0.12 -0.28 -2.15 -2.55 0.98 3.36 43.7 48.03 1655503801.096959
-0.13 -0.31 -2.11 -2.55 -3.54 0.55 53.34 50.35 1655503801.1002083
-0.18 -0.3 -2.2 -2.68 -8.18 -2.38 62.38 51.82 1655503801.1037953
-0.13 -0.3 -2.11 -2.54 -11.66 -10.19 69.52 47.67 1655503801.1152484
-0.12 -0.27 -2.16 -2.55 -23.8 -7.69 79.77 48.28 1655503801.1163266
-0.1 -0.18 -2.15 -2.42 -46.2 -15.56 86.43 24.66 1655503801.1174176
-0.07 -0.09 -2.14 -2.29 -39.18 -18.92 85.45 27.34 1655503801.1224742
-0.06 -0.03 -2.13 -2.22 -44.56 -22.03 80.32 13.73 1655503801.1236978
-0.01 -0.01 -2.13 -2.14 -49.87 -26.86 69.64 -7.08 1655503801.1247885
0.03 0.0 -2.13 -2.1 -54.26 -30.27 58.04 -26.49 1655503801.126611
0.07 0.0 -2.09 -2.01 -57.13 -34.18 38.51 -52.8 1655503801.1302233
0.08 -0.04 -2.08 -2.04 -47.06 -36.74 24.84 -58.96 1655503801.1346889
0.1 -0.04 -2.05 -1.99 -63.84 -37.41 11.05 -90.21 1655503801.1370835
0.1 -0.04 -2.03 -1.98 -63.78 -37.35 -6.1 -107.24 1655503801.1403518
0.11 -0.09 -2.01 -2.0 -62.19 -37.54 -23.86 -123.6 1655503801.1434615
0.05 -0.06 -2.01 -2.02 -57.25 -41.69 -39.61 -138.55 1655503801.1477487
-0.08 0.04 -1.94 -1.99 -44.37 -49.5 -40.83 -134.7 1655503801.1504083
-0.02 -0.05 -1.85 -1.92 -41.56 -32.35 -41.38 -115.3 1655503801.1536105
-0.02 -0.16 -1.99 -2.18 -41.08 -23.93 -45.17 -110.17 1655503801.1649935
-0.06 -0.14 -1.91 -2.11 -33.2 -22.16 -47.3 -102.66 1655503801.1662366
-0.02 -0.16 -1.86 -2.04 -27.89 -13.12 -51.76 -92.77 1655503801.1674147
-0.02 -0.14 -1.59 -1.75 -19.65 -1.77 -59.69 -81.12 1655503801.1729567
0.07 -0.03 -1.41 -1.37 -4.33 39.0 -70.74 -36.07 1655503801.1740704
-0.01 -0.0 -1.86 -1.87 43.27 36.87 -75.56 4.58 1655503801.175187
0.02 -0.11 -1.57 -1.66 71.17 45.41 -83.98 32.59 1655503801.1768708
-0.01 -0.14 -1.7 -1.85 80.93 77.51 -90.45 67.99 1655503801.1798937
-0.12 -0.19 -1.91 -2.21 90.52 100.89 -91.86 99.55 1655503801.1832926
-0.12 -0.15 -2.0 -2.27 107.3 90.33 -91.0 106.63 1655503801.1865516
-0.1 -0.14 -2.05 -2.29 126.22 63.48 -92.71 96.98 1655503801.1900249
-0.16 -0.16 -2.0 -2.32 129.15 69.27 -88.62 109.8 1655503801.193252
-0.2 -0.22 -2.07 -2.49 125.49 75.01 -79.71 120.79 1655503801.196662
-0.22 -0.21 -2.13 -2.56 126.1 68.18 -70.56 123.72 1655503801.2017086
-0.22 -0.22 -2.11 -2.55 122.07 67.93 -59.57 130.43 1655503801.213005
-0.26 -0.24 -2.16 -2.66 114.5 65.31 -43.52 136.29 1655503801.2141316
-0.28 -0.24 -2.14 -2.67 107.91 61.04 -28.38 140.56 1655503801.21533
-0.28 -0.24 -2.15 -2.67 101.5 59.33 -13.61 147.22 1655503801.2164497
-0.28 -0.24 -2.16 -2.68 92.65 57.19 1.59 151.43 1655503801.2215884
-0.26 -0.26 -2.16 -2.67 83.07 53.41 16.05 152.53 1655503801.2226727
-0.25 -0.23 -2.17 -2.65 75.56 48.95 28.81 153.32 1655503801.2237842
-0.23 -0.21 -2.16 -2.6 70.43 43.52 39.98 153.93 1655503801.2267692
-0.22 -0.19 -2.15 -2.57 64.51 39.18 49.74 153.44 1655503801.2305114
-0.21 -0.17 -2.13 -2.51 57.98 27.34 57.25 142.58 1655503801.2344658
-0.14 -0.17 -2.16 -2.48 46.94 10.86 62.56 120.36 1655503801.2369723
-0.12 0.01 -2.52 -2.62 24.29 8.06 64.45 96.8 1655503801.239663
-0.12 -0.18 -2.3 -2.6 3.85 13.92 62.44 80.2 1655503801.2429461
-0.1 -0.11 -2.04 -2.25 -13.12 9.52 62.74 59.14 1655503801.2466168
-0.08 -0.02 -2.16 -2.26 -21.36 12.33 59.57 50.54 1655503801.2496705
-0.07 -0.06 -2.22 -2.35 -18.19 -5.25 53.59 30.15 1655503801.2529652
-0.06 -0.04 -2.02 -2.12 -19.23 -12.76 49.13 17.15 1655503801.2639916
-0.04 -0.08 -2.08 -2.2 -28.32 -7.63 44.62 8.67 1655503801.2650726
-0.03 -0.03 -2.1 -2.16 -31.49 -12.63 37.05 -7.08 1655503801.2661755
-0.01 -0.01 -2.12 -2.14 -35.22 -11.6 28.87 -17.94 1655503801.2714083
-0.0 -0.04 -2.13 -2.17 -36.99 -16.48 18.92 -34.55 1655503801.27254
-0.02 -0.02 -2.07 -2.1 -40.16 -20.69 6.1 -54.75 1655503801.2736335
-0.01 -0.05 -2.06 -2.12 -42.66 -21.0 -2.5 -66.16 1655503801.2769217
-0.03 -0.05 -2.05 -2.13 -43.76 -23.5 -11.78 -79.04 1655503801.2797558
-0.03 -0.06 -2.06 -2.15 -44.37 -24.11 -18.01 -86.49 1655503801.2830338
-0.07 -0.11 -2.06 -2.23 -39.18 -31.31 -22.09 -92.59 1655503801.286692
-0.09 -0.09 -1.92 -2.11 -37.29 -29.85 -25.02 -92.16 1655503801.290027
-0.09 -0.15 -1.95 -2.19 -36.25 -21.79 -25.27 -83.31 1655503801.2932634
-0.11 -0.14 -1.93 -2.18 -30.88 -16.05 -23.99 -70.92 1655503801.2966795
-0.12 -0.16 -1.92 -2.2 -21.36 -12.45 -22.09 -55.91 1655503801.2997563
-0.12 -0.16 -1.9 -2.19 -14.4 -5.8 -19.78 -39.98 1655503801.303398
-0.14 -0.18 -1.9 -2.21 -4.64 -4.52 -16.72 -25.88 1655503801.3144307
-0.15 -0.2 -1.87 -2.22 1.4 0.79 -11.41 -9.22 1655503801.31551
-0.15 -0.19 -1.91 -2.24 9.03 8.54 -5.68 11.9 1655503801.3165405
-0.15 -0.19 -1.91 -2.25 17.03 12.39 0.67 30.09 1655503801.3216162
-0.16 -0.19 -1.91 -2.26 27.53 19.78 6.35 53.65 1655503801.3226893
-0.14 -0.19 -1.95 -2.28 33.2 23.8 11.9 68.91 1655503801.3237765
-0.12 -0.16 -1.94 -2.23 40.89 26.18 15.2 82.28 1655503801.326833
-0.12 -0.16 -1.99 -2.27 44.68 28.2 18.68 91.55 1655503801.33051
-0.11 -0.14 -1.99 -2.25 46.88 46.57 21.0 114.44 1655503801.3332944
-0.1 -0.13 -2.01 -2.24 48.83 32.9 21.85 103.58 1655503801.336825
-0.1 -0.13 -2.03 -2.27 51.76 34.24 21.91 107.91 1655503801.3399422
-0.1 -0.12 -2.03 -2.25 51.09 35.1 21.42 107.6 1655503801.3427246
-0.1 -0.12 -2.06 -2.27 52.0 34.97 21.61 108.58 1655503801.3462288
-0.09 -0.12 -2.06 -2.27 51.33 33.69 20.51 105.53 1655503801.352373
-0.1 -0.11 -2.07 -2.28 50.66 32.04 19.04 101.75 1655503801.3534858
-0.09 -0.12 -2.07 -2.27 49.32 30.15 17.52 96.98 1655503801.3645682
-0.09 -0.11 -2.07 -2.27 46.33 29.11 16.11 91.55 1655503801.3659613
-0.09 -0.11 -2.09 -2.29 44.62 28.5 15.44 88.56 1655503801.3671045
-0.1 -0.11 -2.09 -2.29 41.69 26.55 14.4 82.64 1655503801.3725212
-0.1 -0.11 -2.09 -2.29 36.19 25.39 14.28 75.87 1655503801.3737733
-0.1 -0.11 -2.1 -2.32 35.22 22.83 12.33 70.37 1655503801.3748538
-0.1 -0.11 -2.11 -2.32 30.76 21.55 10.99 63.29 1655503801.376602
-0.1 -0.1 -2.12 -2.32 27.47 17.09 9.58 54.14 1655503801.3793027
-0.1 -0.1 -2.12 -2.33 22.28 14.71 7.87 44.86 1655503801.3825297
-0.11 -0.11 -2.12 -2.33 15.5 12.51 8.79 36.8 1655503801.386035
-0.1 -0.1 -2.13 -2.33 11.41 9.34 7.81 28.56 1655503801.3891659
-0.1 -0.11 -2.12 -2.33 7.57 7.75 6.96 22.28 1655503801.3924465
-0.11 -0.11 -2.13 -2.35 2.26 3.6 7.39 13.24 1655503801.3958158
-0.11 -0.11 -2.12 -2.34 -2.2 -15.44 6.35 -11.29 1655503801.3993206
-0.11 -0.11 -2.11 -2.33 -6.77 -2.87 6.47 -3.17 1655503801.4028687
-0.11 -0.12 -2.11 -2.34 -12.76 -4.15 6.59 -10.31 1655503801.4144397
-0.12 -0.12 -2.09 -2.32 -15.56 -5.86 7.14 -14.28 1655503801.4155605
-0.12 -0.12 -2.08 -2.32 -17.76 -8.48 7.69 -18.55 1655503801.4166396
-0.12 -0.12 -2.06 -2.3 -19.59 -10.86 8.97 -21.48 1655503801.421838
-0.11 -0.12 -2.04 -2.27 -21.18 -9.58 8.54 -22.22 1655503801.4229655
-0.11 -0.12 -2.03 -2.26 -20.51 -10.62 9.34 -21.79 1655503801.4240594
-0.1 -0.12 -2.01 -2.24 -20.94 -9.7 8.54 -22.09 1655503801.425868
-0.1 -0.13 -2.0 -2.23 -20.63 -8.36 10.07 -18.92 1655503801.4296458
-0.1 -0.12 -1.98 -2.2 -13.85 -6.96 10.01 -10.8 1655503801.4328244
-0.09 -0.12 -1.98 -2.2 -10.62 -5.0 8.36 -7.26 1655503801.4359307
-0.1 -0.13 -1.97 -2.2 -8.54 -1.77 7.63 -2.69 1655503801.4393828
-0.1 -0.12 -1.96 -2.19 -3.23 -0.24 8.36 4.88 1655503801.4425676
-0.1 -0.13 -1.97 -2.2 0.0 3.36 9.7 13.06 1655503801.4458897
-0.1 -0.13 -1.96 -2.2 6.35 5.0 7.75 19.1 1655503801.4494927
-0.11 -0.14 -1.97 -2.21 8.12 6.77 8.67 23.56 1655503801.4541504
-0.1 -0.13 -1.97 -2.21 13.18 10.07 8.3 31.56 1655503801.4652197
-0.11 -0.13 -1.97 -2.21 17.76 12.21 8.3 38.27 1655503801.4662752
-0.1 -0.14 -1.98 -2.22 22.64 14.83 8.91 46.39 1655503801.467395
-0.1 -0.14 -1.98 -2.22 26.43 15.93 10.56 52.92 1655503801.4684787
-0.1 -0.13 -1.99 -2.23 28.14 18.62 10.19 56.95 1655503801.473519
-0.1 -0.13 -2.0 -2.23 30.94 21.18 9.58 61.71 1655503801.4745798
-0.1 -0.13 -2.0 -2.23 32.84 20.81 9.95 63.6 1655503801.475697
-0.1 -0.13 -2.01 -2.24 34.12 22.77 8.73 65.61 1655503801.479061
-0.11 -0.12 -2.02 -2.25 37.17 24.17 9.77 71.11 1655503801.4826088
-0.1 -0.12 -2.03 -2.25 38.39 23.01 9.77 71.17 1655503801.4864635
-0.1 -0.12 -2.04 -2.26 37.84 23.25 9.28 70.37 1655503801.489353
-0.1 -0.12 -2.05 -2.27 39.18 24.84 9.16 73.18 1655503801.4925523
-0.1 -0.12 -2.06 -2.29 38.57 24.29 9.64 72.51 1655503801.4956481
-0.1 -0.12 -2.06 -2.29 35.77 21.91 9.83 67.5 1655503801.4992297
-0.11 -0.12 -2.08 -2.31 34.24 20.69 8.54 63.48 1655503801.5029364
-0.1 -0.12 -2.08 -2.31 30.7 20.39 8.91 60.0 1655503801.514194
-0.1 -0.11 -2.09 -2.31 27.1 18.25 9.52 54.87 1655503801.5152807
-0.11 -0.12 -2.1 -2.32 24.48 16.72 8.24 49.44 1655503801.5163205
-0.11 -0.11 -2.1 -2.33 20.75 15.93 8.97 45.65 1655503801.5214868
-0.11 -0.11 -2.1 -2.32 16.48 12.27 10.01 38.76 1655503801.5225623
-0.11 -0.11 -2.11 -2.33 12.33 8.24 9.95 30.52 1655503801.523607
-0.11 -0.11 -2.1 -2.32 9.22 7.81 9.16 26.18 1655503801.525301
-0.11 -0.11 -2.09 -2.31 5.68 5.25 9.16 20.08 1655503801.528902
-0.11 -0.11 -2.09 -2.31 1.77 3.6 7.93 13.31 1655503801.532135
-0.11 -0.12 -2.08 -2.31 -0.37 1.28 10.01 10.93 1655503801.5352826
-0.1 -0.11 -2.07 -2.29 -3.48 -0.79 9.03 4.76 1655503801.538672
-0.11 -0.12 -2.06 -2.29 -3.91 -0.31 8.97 4.76 1655503801.5422513
-0.11 -0.12 -2.06 -2.29 -7.39 -0.79 9.4 1.22 1655503801.545583
-0.11 -0.12 -2.05 -2.28 -8.18 -0.73 8.48 -0.43 1655503801.5489285
-0.11 -0.12 -2.04 -2.27 -8.0 -3.36 9.77 -1.59 1655503801.5535207
-0.11 -0.12 -2.04 -2.27 -8.18 -2.2 9.09 -1.28 1655503801.5648186
-0.11 -0.15 -2.02 -2.28 -7.39 -2.62 8.67 -1.34 1655503801.5662103
-0.11 -0.13 -2.02 -2.26 -5.92 -1.46 9.03 1.65 1655503801.5673244
-0.1 -0.12 -2.01 -2.24 -4.46 0.24 8.42 4.21 1655503801.5684378
-0.11 -0.12 -2.01 -2.24 -2.56 1.28 8.54 7.26 1655503801.573825
-0.11 -0.12 -2.01 -2.24 -0.37 2.08 8.73 10.44 1655503801.5742197
-0.11 -0.13 -2.0 -2.24 0.73 3.11 9.7 13.55 1655503801.5748034
-0.11 -0.13 -1.99 -2.23 5.92 4.15 8.67 18.74 1655503801.5782287
-0.1 -0.13 -2.0 -2.23 7.26 6.59 8.97 22.83 1655503801.5814137
-0.1 -0.13 -2.0 -2.23 10.62 7.75 8.97 27.34 1655503801.5847335
-0.1 -0.13 -1.99 -2.23 13.67 9.34 9.58 32.59 1655503801.588082
-0.1 -0.13 -2.0 -2.23 30.88 10.99 10.44 52.31 1655503801.5914028
-0.1 -0.13 -2.0 -2.23 19.1 13.06 9.28 41.44 1655503801.5951085
-0.1 -0.13 -2.0 -2.23 22.34 15.69 9.4 47.42 1655503801.5984101
-0.1 -0.13 -2.01 -2.24 24.48 16.78 9.52 50.78 1655503801.6025047
-0.1 -0.13 -2.01 -2.24 25.09 17.76 9.34 52.19 1655503801.607649
-0.11 -0.13 -2.01 -2.25 26.92 16.85 8.48 52.25 1655503801.6163268
-0.1 -0.12 -2.02 -2.25 27.83 19.41 9.28 56.52 1655503801.616646
-0.11 -0.13 -2.03 -2.27 30.15 19.35 9.03 58.53 1655503801.6169534
-0.11 -0.13 -2.03 -2.27 31.31 18.68 8.54 58.53 1655503801.6193166
-0.1 -0.13 -2.05 -2.27 31.62 19.59 9.28 60.49 1655503801.621355
-0.1 -0.13 -2.05 -2.28 31.56 19.41 9.83 60.79 1655503801.6245592
-0.11 -0.12 -2.06 -2.29 28.81 20.08 9.03 57.92 1655503801.6278021
-0.11 -0.12 -2.07 -2.29 28.81 18.43 9.89 57.13 1655503801.6314359
-0.1 -0.12 -2.07 -2.3 27.04 16.66 9.34 53.04 1655503801.6347635
-0.11 -0.11 -2.08 -2.3 23.44 14.59 9.28 47.3 1655503801.6380439
-0.1 -0.12 -2.07 -2.3 20.69 15.2 8.48 44.37 1655503801.6419477
-0.11 -0.11 -2.08 -2.31 20.45 12.94 8.85 42.24 1655503801.644979
-0.11 -0.12 -2.09 -2.31 17.27 13.92 9.22 40.41 1655503801.6481597
-0.11 -0.12 -2.08 -2.31 13.31 8.91 9.4 31.62 1655503801.6515958
-0.11 -0.11 -2.08 -2.3 11.05 7.51 8.79 27.34 1655503801.656886
-0.1 -0.11 -2.08 -2.29 8.61 6.9 9.4 24.9 1655503801.657709
-0.11 -0.12 -2.08 -2.31 5.55 6.9 8.61 21.06 1655503801.6610184
-0.11 -0.12 -2.07 -2.3 4.52 3.48 10.07 18.07 1655503801.6643844
-0.11 -0.12 -2.07 -2.29 0.67 3.72 8.42 12.82 1655503801.6679761
-0.11 -0.12 -2.06 -2.28 0.73 3.72 9.16 13.61 1655503801.6714067
-0.11 -0.12 -2.06 -2.29 -0.49 2.62 10.19 12.33 1655503801.6747305
-0.1 -0.12 -2.05 -2.26 -0.92 1.16 10.13 10.38 1655503801.6780326
-0.1 -0.13 -2.04 -2.27 -0.79 2.2 9.83 11.23 1655503801.681334
-0.1 -0.12 -2.04 -2.27 0.18 1.22 8.91 10.31 1655503801.6846366
-0.1 -0.12 -2.03 -2.25 0.31 1.1 9.16 10.56 1655503801.687828
-0.1 -0.13 -2.03 -2.26 0.24 0.73 8.24 9.22 1655503801.6916192
-0.1 -0.12 -2.02 -2.24 0.73 2.2 9.83 12.76 1655503801.694714
-0.1 -0.13 -2.02 -2.25 3.54 3.3 8.54 15.38 1655503801.6981282
-0.11 -0.13 -2.02 -2.25 3.11 5.86 9.28 18.25 1655503801.7025115
-0.11 -0.13 -2.01 -2.25 4.15 6.1 9.7 19.96 1655503801.713968
-0.1 -0.13 -2.01 -2.24 9.46 7.2 10.19 26.86 1655503801.7150702
-0.11 -0.13 -2.0 -2.24 10.01 7.32 9.77 27.1 1655503801.7161102
-0.1 -0.13 -2.01 -2.24 11.17 7.63 7.75 26.55 1655503801.717136
-0.11 -0.12 -2.0 -2.23 13.0 8.73 9.22 30.94 1655503801.7222452
-0.1 -0.13 -2.01 -2.24 15.69 11.05 9.83 36.56 1655503801.7233326
-0.11 -0.13 -2.01 -2.25 17.46 11.29 9.09 37.84 1655503801.7243814
-0.1 -0.13 -2.01 -2.24 19.23 13.0 8.3 40.53 1655503801.7277608
-0.1 -0.13 -2.01 -2.24 20.69 15.01 8.67 44.37 1655503801.731174
-0.1 -0.12 -2.02 -2.24 22.89 17.27 7.93 48.1 1655503801.735009
-0.1 -0.12 -2.02 -2.25 23.25 16.36 8.0 47.61 1655503801.738013
-0.1 -0.12 -2.02 -2.25 23.93 0.98 8.67 33.57 1655503801.7412882
-0.11 -0.13 -2.04 -2.27 25.33 16.05 8.85 50.23 1655503801.7446454
-0.11 -0.13 -2.04 -2.27 24.66 16.54 9.09 50.29 1655503801.7476606
-0.1 -0.12 -2.04 -2.26 25.7 17.33 9.46 52.49 1655503801.752051
-0.1 -0.12 -2.05 -2.28 24.84 16.36 9.16 50.35 1655503801.7646255
-0.11 -0.12 -2.05 -2.27 23.86 16.54 8.61 49.01 1655503801.7659953
-0.11 -0.12 -2.06 -2.29 22.58 16.97 8.97 48.52 1655503801.76709
-0.11 -0.12 -2.06 -2.29 21.12 16.11 8.18 45.41 1655503801.7681363
-0.1 -0.12 -2.06 -2.28 19.78 15.44 9.34 44.56 1655503801.773516
-0.11 -0.12 -2.07 -2.29 17.27 14.34 9.83 41.44 1655503801.7745838
-0.1 -0.11 -2.07 -2.29 15.32 12.02 8.61 35.95 1655503801.7756424
-0.11 -0.12 -2.07 -2.29 13.18 10.13 8.91 32.23 1655503801.7774222
-0.11 -0.12 -2.07 -2.3 13.55 10.38 9.7 33.63 1655503801.7807112
-0.11 -0.12 -2.07 -2.29 11.11 7.75 9.22 28.08 1655503801.7840424
-0.11 -0.12 -2.06 -2.29 8.3 6.71 9.09 24.11 1655503801.787325
-0.11 -0.12 -2.07 -2.29 7.32 7.45 10.44 25.21 1655503801.790797
-0.1 -0.12 -2.09 -2.31 5.8 7.45 9.03 22.28 1655503801.794038
-0.11 -0.12 -2.06 -2.28 4.88 4.33 8.91 18.13 1655503801.797289
-0.11 -0.12 -2.05 -2.28 5.43 3.91 9.09 18.43 1655503801.8019016
-0.1 -0.12 -2.05 -2.27 3.23 3.72 10.19 17.15 1655503801.809413
-0.11 -0.12 -2.05 -2.28 2.69 5.0 9.58 17.27 1655503801.8098588
-0.11 -0.12 -2.04 -2.26 1.89 3.91 8.85 14.65 1655503801.8102841
-0.11 -0.12 -2.04 -2.27 3.48 4.58 8.79 16.85 1655503801.8135777
-0.11 -0.12 -2.03 -2.26 2.93 4.21 9.16 16.3 1655503801.8169508
-0.11 -0.12 -2.02 -2.25 3.85 3.66 8.3 15.81 1655503801.8203614
-0.1 -0.12 -2.03 -2.25 4.27 5.49 7.81 17.58 1655503801.8238382
-0.11 -0.13 -2.03 -2.26 3.42 5.68 8.85 17.94 1655503801.8273106
-0.1 -0.13 -2.02 -2.24 6.16 7.08 8.54 21.79 1655503801.8307922
-0.1 -0.13 -2.02 -2.25 8.67 7.32 7.93 23.93 1655503801.8339434
-0.1 -0.13 -2.02 -2.25 8.85 8.3 9.16 26.31 1655503801.8370981
-0.1 -0.09 -2.01 -2.21 9.46 8.0 8.54 26.0 1655503801.840398
-0.11 -0.13 -2.01 -2.25 12.02 10.38 9.4 31.8 1655503801.8438015
-0.1 -0.12 -2.02 -2.24 15.08 12.08 9.16 36.32 1655503801.847205
-0.1 -0.12 -2.02 -2.25 16.3 10.62 9.34 36.25 1655503801.8523958
-0.1 -0.13 -2.02 -2.25 16.17 11.78 9.58 37.54 1655503801.8536663
-0.11 -0.13 -2.02 -2.25 17.4 12.21 10.13 39.73 1655503801.8658168
-0.1 -0.12 -2.02 -2.25 20.51 12.94 10.38 43.82 1655503801.8668938
-0.11 -0.13 -2.02 -2.26 20.32 13.18 8.97 42.48 1655503801.868018
-0.1 -0.12 -2.04 -2.26 20.69 14.71 9.7 45.1 1655503801.8690965
-0.11 -0.13 -2.03 -2.27 22.46 15.81 10.31 48.58 1655503801.8741515
-0.1 -0.12 -2.04 -2.26 22.71 15.81 10.07 48.58 1655503801.8752863
-0.1 -0.13 -2.04 -2.27 22.22 15.87 9.52 47.61 1655503801.876884
-0.11 -0.12 -2.05 -2.27 20.08 15.63 8.91 44.62 1655503801.8802302
-0.11 -0.12 -2.05 -2.28 20.26 14.59 7.81 42.66 1655503801.8835673
-0.11 -0.12 -2.05 -2.28 22.64 15.63 8.91 47.18 1655503801.8866825
-0.11 -0.12 -2.05 -2.28 20.69 15.38 9.95 46.02 1655503801.8903098
-0.11 -0.12 -2.06 -2.3 18.92 14.77 9.89 43.58 1655503801.8935704
-0.1 -0.12 -2.06 -2.28 16.78 13.18 9.7 39.67 1655503801.8969028
-0.11 -0.12 -2.06 -2.28 15.69 12.63 9.7 38.02 1655503801.900222
-0.1 -0.13 -2.09 -2.32 14.47 13.73 9.83 38.02 1655503801.913409
-0.1 -0.12 -2.06 -2.29 13.67 11.23 9.64 34.55 1655503801.9145205
-0.11 -0.12 -2.06 -2.28 12.7 10.86 10.19 33.75 1655503801.915639
-0.11 -0.12 -2.06 -2.29 11.6 10.31 9.77 31.68 1655503801.9168243
-0.11 -0.12 -2.06 -2.29 8.06 6.9 9.95 24.9 1655503801.9220843
-0.1 -0.12 -2.06 -2.28 8.73 5.98 9.77 24.48 1655503801.9231539
-0.11 -0.12 -2.06 -2.29 8.85 4.7 8.85 22.4 1655503801.9241753
-0.11 -0.12 -2.04 -2.27 6.41 6.1 9.83 22.34 1655503801.9267566
-0.11 -0.12 -2.05 -2.28 5.37 4.88 9.28 19.53 1655503801.929967
-0.11 -0.13 -2.05 -2.29 5.13 4.64 8.73 18.49 1655503801.9341586
-0.11 -0.13 -2.04 -2.27 4.33 4.39 9.22 17.94 1655503801.9367514
-0.1 -0.12 -2.04 -2.26 5.37 7.02 8.73 21.12 1655503801.9398875
-0.11 -0.13 -2.04 -2.27 5.25 5.37 9.7 20.32 1655503801.9432817
-0.1 -0.12 -2.01 -2.23 7.02 4.76 8.67 20.45 1655503801.9465451
-0.1 -0.12 -2.02 -2.24 5.92 6.41 10.13 22.46 1655503801.9499023
-0.1 -0.12 -2.03 -2.25 7.69 5.68 8.97 22.34 1655503801.9531171
-0.11 -0.12 -2.03 -2.25 7.57 6.77 8.54 22.89 1655503801.9634194
-0.1 -0.12 -2.02 -2.24 8.48 7.26 9.28 25.02 1655503801.9637969
-0.11 -0.12 -2.02 -2.24 9.52 8.85 10.38 28.75 1655503801.9642258
-0.1 -0.13 -2.02 -2.25 10.8 8.97 10.38 30.15 1655503801.9679992
-0.1 -0.12 -2.02 -2.25 11.29 10.99 9.22 31.49 1655503801.969323
-0.11 -0.16 -2.02 -2.28 13.67 10.62 8.85 33.14 1655503801.9727514
-0.1 -0.12 -2.03 -2.25 16.17 11.47 9.89 37.54 1655503801.9759512
-0.11 -0.12 -2.03 -2.25 16.3 12.57 9.64 38.51 1655503801.9794066
-0.1 -0.12 -2.02 -2.25 17.27 13.18 9.4 39.86 1655503801.9827936
-0.11 -0.12 -2.02 -2.25 18.55 13.37 8.18 40.1 1655503801.9863746
-0.1 -0.12 -2.03 -2.26 19.04 12.45 9.22 40.71 1655503801.9895048
-0.1 -0.12 -2.04 -2.26 19.9 11.72 8.48 40.1 1655503801.9927554
-0.11 -0.12 -2.04 -2.27 19.47 13.24 9.52 42.24 1655503801.9964247
-0.11 -0.12 -2.04 -2.27 19.29 14.1 9.64 43.03 1655503801.9997427
-0.1 -0.12 -2.04 -2.27 20.39 12.94 9.52 42.85 1655503802.011794
-0.1 -0.12 -2.04 -2.27 19.23 13.79 10.19 43.21 1655503802.0128672
-0.11 -0.12 -2.04 -2.27 20.51 14.28 9.16 43.95 1655503802.0139043
-0.1 -0.12 -2.04 -2.27 18.68 15.5 9.64 43.82 1655503802.0150027
-0.11 -0.12 -2.05 -2.28 17.15 12.63 9.28 39.06 1655503802.0200875
-0.11 -0.12 -2.06 -2.29 17.76 13.73 8.97 40.47 1655503802.021151
-0.11 -0.12 -2.06 -2.28 15.69 10.31 9.03 35.03 1655503802.022732
-0.11 -0.12 -2.06 -2.29 14.77 9.7 10.62 35.1 1655503802.02605
-0.11 -0.12 -2.06 -2.29 14.59 11.29 9.16 35.03 1655503802.0302815
-0.1 -0.12 -2.06 -2.28 13.92 10.99 9.89 34.79 1655503802.0327852
-0.11 -0.12 -2.06 -2.29 12.21 9.77 8.42 30.4 1655503802.0360584
-0.11 -0.12 -2.06 -2.29 11.78 10.5 9.03 31.31 1655503802.039485
-0.11 -0.12 -2.05 -2.27 11.9 7.81 9.64 29.36 1655503802.0426621
-0.1 -0.12 -2.05 -2.28 8.91 9.28 9.95 28.14 1655503802.0463328
-0.11 -0.12 -2.05 -2.28 8.12 8.61 9.46 26.18 1655503802.0495627
-0.11 -0.12 -2.05 -2.29 7.2 7.32 9.7 24.23 1655503802.0532463
-0.1 -0.12 -2.05 -2.27 6.71 6.9 8.91 22.52 1655503802.0661378
-0.11 -0.13 -2.05 -2.28 7.63 7.32 9.34 24.29 1655503802.0672016
-0.11 -0.12 -2.04 -2.28 7.57 6.35 9.83 23.74 1655503802.0682242
-0.11 -0.12 -2.04 -2.27 8.79 6.84 9.22 24.84 1655503802.073402
-0.1 -0.12 -2.03 -2.26 7.26 6.77 9.77 23.8 1655503802.074419
-0.11 -0.13 -2.03 -2.26 7.14 7.32 8.67 23.13 1655503802.0754936
-0.11 -0.13 -2.03 -2.27 7.69 8.18 8.73 24.6 1655503802.0764952
-0.11 -0.12 -2.03 -2.26 9.22 8.0 8.61 25.82 1655503802.0796518
-0.12 -0.07 -1.93 -2.12 8.97 12.94 8.85 30.76 1655503802.083076
-0.12 0.01 -1.97 -2.09 10.07 21.36 7.02 38.45 1655503802.0862007
-0.33 0.06 -1.7 -1.98 24.05 26.37 -0.31 50.11 1655503802.0891435
-0.46 -0.07 -1.58 -2.1 38.15 59.39 -0.43 97.11 1655503802.0924344
-0.52 -0.09 -1.77 -2.39 76.11 60.18 -0.98 135.31 1655503802.0956967
-0.65 -0.11 -1.9 -2.66 92.77 56.52 -1.83 147.46 1655503802.0990906
-0.73 -0.06 -2.07 -2.87 110.17 42.79 -0.31 152.65 1655503802.1035614
-0.72 -0.08 -2.01 -2.8 113.65 40.95 -2.87 151.73 1655503802.1151304
-0.39 -0.2 -2.05 -2.64 116.88 44.98 12.63 174.5 1655503802.1162305
0.27 -0.27 -2.5 -2.5 110.66 -16.97 12.94 106.63 1655503802.1173217
0.79 -0.46 -1.92 -1.6 107.18 -27.95 37.78 117.0 1655503802.1184192
1.02 -0.49 -1.61 -1.08 92.47 -2.56 60.61 150.51 1655503802.1235719
0.85 -0.2 -2.26 -1.62 66.1 11.23 56.76 134.09 1655503802.1246622
0.57 -0.3 -2.43 -2.16 35.4 36.5 47.79 119.69 1655503802.125716
0.49 -0.15 -2.69 -2.35 -4.7 28.02 55.18 78.49 1655503802.1289916
0.23 -0.29 -3.11 -3.17 -41.26 14.34 105.53 78.61 1655503802.1325734
0.15 -0.13 -2.0 -1.98 -62.93 19.41 138.24 94.73 1655503802.1357672
0.04 -0.29 -2.3 -2.54 -49.68 10.68 155.7 116.7 1655503802.139018
-0.02 -0.86 -1.67 -2.54 -17.64 3.05 197.57 182.98 1655503802.1422708
0.24 0.02 -2.34 -2.08 -0.18 2.08 205.93 207.82 1655503802.1455677
0.07 -0.59 -2.11 -2.63 7.45 -30.27 195.98 173.16 1655503802.149207
-0.08 -0.17 -2.44 -2.69 1.04 -7.63 199.22 192.63 1655503802.1527479
-0.07 0.13 -1.96 -1.91 -48.65 -1.1 190.86 141.11 1655503802.1610742
-0.05 0.11 -2.75 -2.69 -46.45 -47.61 165.16 71.11 1655503802.1614454
-0.2 -0.07 -1.8 -2.07 -89.84 -11.6 150.09 48.65 1655503802.1618133
-0.27 0.02 -2.2 -2.45 -61.4 -64.27 148.38 22.71 1655503802.164917
-0.19 -0.02 -1.83 -2.05 -126.04 -1.04 134.77 7.69 1655503802.1682646
-0.34 -0.2 -2.28 -2.82 -76.6 -53.83 130.98 0.55 1655503802.1715536
-0.43 -0.03 -1.66 -2.13 -89.23 -48.46 122.68 -15.01 1655503802.1749375
-0.41 -0.08 -2.28 -2.78 -88.81 -56.09 118.59 -26.31 1655503802.1783924
-0.38 -0.06 -1.97 -2.41 -90.09 -62.93 118.9 -34.12 1655503802.1817665
-0.42 -0.12 -2.03 -2.57 -88.99 -40.47 108.03 -21.42 1655503802.1849892
-0.44 -0.02 -1.54 -2.0 -84.66 -48.71 102.42 -30.94 1655503802.1887274
-0.32 0.06 -2.3 -2.56 -79.9 -32.29 97.11 -15.08 1655503802.1920788
-0.35 0.05 -1.94 -2.24 -62.01 -60.06 86.43 -35.64 1655503802.1954484
-0.35 0.05 -1.72 -2.03 -73.67 -31.01 72.57 -32.1 1655503802.1986227
-0.27 0.05 -1.92 -2.14 -48.58 -25.45 57.86 -16.17 1655503802.2029202
-0.21 0.06 -1.88 -2.03 -51.7 -23.68 38.21 -37.17 1655503802.2142332
-0.19 0.06 -1.93 -2.07 -42.54 -16.24 22.89 -35.89 1655503802.2153943
-0.13 0.05 -1.91 -1.98 -31.13 -14.53 12.15 -33.51 1655503802.2164843
-0.06 0.05 -1.88 -1.88 -24.17 -8.67 6.23 -26.61 1655503802.2175436
-0.01 -0.07 -1.9 -1.98 -14.77 -2.44 -3.36 -20.57 1655503802.2228763
-0.01 -0.07 -1.92 -2.01 -6.16 0.98 -11.54 -16.72 1655503802.224002
-0.02 -0.05 -1.91 -1.98 5.55 0.98 -21.79 -15.26 1655503802.2251225
-0.04 -0.04 -1.92 -2.0 15.44 2.99 -34.67 -16.24 1655503802.2287877
-0.08 -0.08 -1.92 -2.08 24.9 3.6 -45.65 -17.15 1655503802.232196
-0.09 -0.11 -1.9 -2.09 33.14 9.22 -54.99 -12.63 1655503802.2351866
-0.09 -0.14 -1.94 -2.16 38.27 17.94 -57.56 -1.34 1655503802.2389264
-0.1 -0.15 -2.0 -2.24 43.7 20.02 -58.59 5.13 1655503802.2421942
-0.12 -0.18 -1.91 -2.21 46.69 33.14 -54.32 25.51 1655503802.2456408
0.08 0.02 -1.41 -1.3 40.04 66.65 -47.24 59.45 1655503802.248956
0.05 -0.03 -2.1 -2.08 54.02 68.54 -44.01 78.55 1655503802.252858
0.03 0.03 -2.21 -2.16 66.71 59.63 -50.17 76.17 1655503802.263963
-0.02 0.04 -1.72 -1.7 78.98 62.44 -67.08 74.34 1655503802.265048
-0.04 -0.01 -1.92 -1.97 80.38 56.64 -79.16 57.86 1655503802.2671714
-0.03 -0.03 -2.11 -2.18 88.32 54.99 -83.25 60.06 1655503802.272301
-0.06 -0.05 -1.97 -2.08 85.33 69.52 -86.36 68.48 1655503802.2733994
-0.08 -0.07 -2.22 -2.36 87.71 72.57 -86.85 73.43 1655503802.2745223
-0.11 -0.1 -1.96 -2.16 90.88 68.6 -89.78 69.7 1655503802.2756655
-0.12 -0.18 -2.06 -2.36 90.82 67.57 -91.55 66.83 1655503802.2787943
-0.13 -0.18 -2.18 -2.49 92.41 58.53 -89.54 61.4 1655503802.2825472
-0.16 -0.17 -1.99 -2.32 89.36 61.77 -84.05 67.08 1655503802.286496
-0.16 -0.25 -2.26 -2.67 91.25 51.7 -81.6 61.34 1655503802.2887192
-0.16 -0.27 -2.07 -2.5 84.78 42.72 -77.7 49.8 1655503802.2917695
-0.2 -0.3 -2.16 -2.66 75.32 45.47 -70.07 50.72 1655503802.295163
-0.21 -0.27 -2.23 -2.7 69.21 35.83 -57.25 47.79 1655503802.2987018
-0.23 -0.24 -2.14 -2.61 60.3 33.81 -42.36 51.76 1655503802.3026423
-0.25 -0.29 -2.24 -2.78 31.86 26.55 -28.5 29.91 1655503802.3137274
-0.24 -0.26 -2.22 -2.72 37.41 20.08 -15.56 41.93 1655503802.314817
-0.25 -0.28 -2.19 -2.71 23.99 18.68 -4.46 38.21 1655503802.3159418
-0.25 -0.28 -2.23 -2.75 16.54 11.54 8.12 36.19 1655503802.316994
-0.2 -0.23 -2.18 -2.61 3.54 6.47 18.25 28.26 1655503802.3220394
-0.23 -0.18 -2.18 -2.59 -4.94 -1.16 29.97 23.86 1655503802.3231354
-0.2 -0.2 -2.17 -2.58 -12.94 -8.3 39.49 18.25 1655503802.3249276
-0.2 -0.16 -2.15 -2.51 -23.74 -9.28 46.51 13.49 1655503802.3285992
-0.17 -0.18 -2.14 -2.49 -28.2 -14.34 54.44 11.9 1655503802.3317199
-0.15 -0.14 -2.1 -2.39 -32.53 -16.72 57.07 7.81 1655503802.335085
-0.12 -0.12 -2.1 -2.34 -38.27 -17.7 59.2 3.23 1655503802.3386822
-0.1 -0.12 -2.06 -2.28 -39.49 -22.52 59.51 -2.5 1655503802.3418107
-0.07 -0.09 -2.02 -2.18 -41.63 -20.26 56.82 -5.07 1655503802.3453114
-0.05 -0.08 -2.0 -2.13 -42.11 -16.3 53.71 -4.7 1655503802.3486466
-0.03 -0.06 -2.02 -2.12 -39.79 -17.52 48.03 -9.28 1655503802.3526292
-0.01 -0.06 -1.97 -2.04 -37.05 -16.42 40.77 -12.7 1655503802.364342
-0.01 -0.06 -1.97 -2.03 -33.39 -14.59 15.69 -32.29 1655503802.3655076
-0.01 -0.06 -1.93 -2.0 -28.81 -13.92 20.51 -22.22 1655503802.3666475
0.0 -0.05 -1.93 -1.98 -21.85 -7.14 12.82 -16.17 1655503802.37337
-0.0 -0.06 -1.94 -2.0 -11.11 -5.31 4.52 -11.9 1655503802.3738945
-0.01 -0.07 -1.92 -2.0 -6.29 -1.46 -3.23 -10.99 1655503802.3745372
-0.02 -0.08 -1.93 -2.04 1.46 2.38 -10.07 -6.23 1655503802.3750525
-0.05 -0.09 -1.92 -2.06 8.97 4.7 -15.87 -2.2 1655503802.3779325
-0.07 -0.11 -1.95 -2.13 15.63 6.29 -21.18 0.73 1655503802.3815444
-0.08 -0.12 -1.95 -2.15 22.03 9.58 -23.07 8.54 1655503802.384629
-0.1 -0.14 -1.96 -2.2 29.85 14.16 -23.25 20.75 1655503802.3880758
-0.12 -0.16 -1.98 -2.25 32.96 17.21 -20.81 29.36 1655503802.3916953
-0.14 -0.17 -1.99 -2.3 36.62 19.71 -19.23 37.11 1655503802.3946757
-0.15 -0.18 -2.0 -2.32 40.04 20.39 -14.71 45.72 1655503802.3978453
-0.16 -0.18 -2.0 -2.34 40.28 23.5 -8.24 55.54 1655503802.4012368
-0.16 -0.18 -2.02 -2.37 41.99 27.71 -2.62 67.08 1655503802.4051645
-0.17 -0.18 -2.04 -2.39 42.97 27.59 2.93 73.49 1655503802.407869
-0.16 -0.18 -2.01 -2.35 41.99 27.1 8.79 77.88 1655503802.41133
-0.15 -0.17 -2.05 -2.37 40.28 28.32 13.06 81.67 1655503802.4149919
-0.14 -0.15 -2.06 -2.36 41.38 27.28 16.97 85.63 1655503802.418264
-0.13 -0.14 -2.07 -2.33 40.77 24.78 19.53 85.08 1655503802.4216378
-0.11 -0.13 -2.07 -2.32 40.34 24.17 21.0 85.51 1655503802.4245849
-0.11 -0.12 -2.07 -2.3 40.16 24.05 21.48 85.69 1655503802.428082
-0.1 -0.12 -2.08 -2.3 34.73 23.62 22.22 80.57 1655503802.431575
-0.1 -0.12 -2.09 -2.31 31.98 21.97 20.69 74.65 1655503802.434541
-0.1 -0.11 -2.09 -2.29 26.92 19.53 19.41 65.86 1655503802.4379516
-0.09 -0.11 -2.1 -2.3 24.48 18.01 18.49 60.97 1655503802.442151
-0.09 -0.11 -2.1 -2.3 22.64 16.17 18.31 57.13 1655503802.445041
-0.09 -0.1 -2.1 -2.29 19.1 13.43 16.48 49.01 1655503802.4482064
-0.09 -0.1 -2.1 -2.29 14.16 10.31 13.73 38.21 1655503802.452695
-0.09 -0.1 -2.09 -2.29 12.02 8.48 10.44 30.94 1655503802.4650037
-0.09 -0.1 -2.09 -2.29 8.61 6.47 10.31 25.39 1655503802.466053
-0.09 -0.11 -2.09 -2.29 3.54 4.27 7.87 15.69 1655503802.4671
-0.09 -0.11 -2.09 -2.29 1.22 3.11 6.96 11.29 1655503802.4681163
-0.09 -0.11 -2.08 -2.29 -0.92 1.4 5.74 6.23 1655503802.4742424
-0.1 -0.12 -2.08 -2.29 -4.27 0.73 3.91 0.37 1655503802.47531
-0.1 -0.11 -2.08 -2.29 -7.39 -1.04 3.36 -5.07 1655503802.476356
-0.1 -0.12 -2.06 -2.28 -8.61 -1.77 3.72 -6.65 1655503802.477846
-0.11 -0.13 -2.06 -2.29 -8.3 -3.17 3.3 -8.18 1655503802.4810784
-0.11 -0.13 -2.05 -2.28 -7.69 -3.91 3.97 -7.63 1655503802.485026
-0.11 -0.14 -2.04 -2.29 -9.22 -2.69 4.82 -7.08 1655503802.4878411
-0.12 -0.14 -2.02 -2.28 -10.5 -5.25 7.51 -8.24 1655503802.4916956
-0.12 -0.14 -2.02 -2.28 -8.91 -2.56 6.96 -4.52 1655503802.4946094
-0.12 -0.15 -2.01 -2.28 -7.14 -2.26 9.46 0.06 1655503802.497945
-0.11 -0.14 -2.0 -2.25 -6.1 -0.79 10.62 3.72 1655503802.5018523
-0.1 -0.14 -2.0 -2.24 -2.93 0.0 11.6 8.67 1655503802.513613
-0.09 -0.13 -2.0 -2.22 -1.83 2.75 11.78 12.7 1655503802.514674
-0.09 -0.12 -2.0 -2.21 1.59 4.39 11.35 17.33 1655503802.5157182
-0.09 -0.12 -1.98 -2.19 6.16 6.16 10.13 22.46 1655503802.5167391
-0.08 -0.12 -1.99 -2.2 10.13 7.81 8.91 26.86 1655503802.5218189
-0.09 -0.13 -1.99 -2.2 10.86 9.28 7.81 27.95 1655503802.5228727
-0.09 -0.13 -1.99 -2.21 13.98 9.95 7.2 31.13 1655503802.5243995
-0.1 -0.14 -2.0 -2.24 16.54 11.6 7.08 35.22 1655503802.528516
-0.11 -0.14 -2.0 -2.25 19.41 13.55 7.2 40.16 1655503802.5316603
-0.11 -0.14 -2.0 -2.25 21.61 13.98 7.93 43.52 1655503802.5350127
-0.11 -0.14 -2.01 -2.26 25.33 16.91 8.67 50.9 1655503802.538009
-0.1 -0.14 -2.01 -2.25 27.28 19.1 10.74 57.13 1655503802.5413015
-0.11 -0.14 -2.02 -2.26 28.69 18.37 10.31 57.37 1655503802.5444086
-0.1 -0.13 -2.02 -2.25 27.71 20.32 11.54 59.57 1655503802.5476496
-0.1 -0.12 -2.03 -2.25 29.97 19.29 10.93 60.18 1655503802.5529313
-0.1 -0.12 -2.03 -2.25 32.59 20.87 10.5 63.96 1655503802.5646243
-0.1 -0.12 -2.04 -2.26 31.68 20.87 9.46 62.01 1655503802.5659306
-0.1 -0.12 -2.05 -2.27 32.23 20.08 9.28 61.58 1655503802.5674434
-0.1 -0.12 -2.06 -2.27 29.79 20.14 8.36 58.29 1655503802.5684965
-0.1 -0.12 -2.07 -2.29 28.32 18.55 8.18 55.05 1655503802.5751505
-0.11 -0.13 -2.07 -2.3 27.77 18.13 8.12 54.02 1655503802.5770278
-0.11 -0.12 -2.08 -2.31 26.18 16.42 7.63 50.23 1655503802.5780315
-0.11 -0.12 -2.08 -2.32 22.52 15.56 8.06 46.14 1655503802.5791168
-0.11 -0.13 -2.08 -2.32 19.96 12.76 8.3 41.02 1655503802.58062
-0.12 -0.13 -2.08 -2.33 16.48 12.94 9.03 38.45 1655503802.5839086
-0.11 -0.13 -2.08 -2.32 14.71 10.38 9.64 34.73 1655503802.5872295
-0.11 -0.13 -2.08 -2.32 12.63 8.85 10.38 31.86 1655503802.5904903
-0.1 -0.12 -2.08 -2.31 10.07 7.75 8.97 26.79 1655503802.593799
-0.1 -0.12 -2.07 -2.3 8.42 7.02 11.6 27.04 1655503802.597529
-0.1 -0.12 -2.07 -2.29 4.94 4.03 9.83 18.8 1655503802.6018536
-0.1 -0.12 -2.07 -2.29 3.97 4.88 9.22 18.07 1655503802.6103015
-0.1 -0.12 -2.06 -2.28 1.53 3.85 9.52 14.89 1655503802.6110463
-0.1 -0.12 -2.06 -2.28 -0.55 2.99 8.12 10.56 1655503802.6117575
-0.11 -0.12 -2.06 -2.29 -0.06 2.69 8.79 11.41 1655503802.616502
-0.11 -0.12 -2.04 -2.27 -1.65 0.73 7.93 7.02 1655503802.6172273
-0.1 -0.13 -2.04 -2.27 -1.16 2.08 6.71 7.63 1655503802.6207714
-0.11 -0.13 -2.04 -2.27 -1.46 0.24 8.36 7.14 1655503802.6240087
-0.11 -0.13 -2.03 -2.27 -0.61 0.92 9.46 9.77 1655503802.627052
-0.11 -0.13 -2.03 -2.26 -0.92 2.44 9.4 10.93 1655503802.630601
-0.1 -0.13 -2.02 -2.25 0.79 3.36 8.79 12.94 1655503802.633822
-0.1 -0.13 -2.02 -2.25 1.95 4.09 9.4 15.44 1655503802.6373906
-0.1 -0.13 -2.02 -2.25 3.85 4.94 8.18 16.97 1655503802.6404245
-0.09 -0.13 -2.02 -2.24 4.88 5.13 8.97 18.98 1655503802.6436868
-0.1 -0.13 -2.02 -2.24 5.55 5.98 9.77 21.3 1655503802.6470153
-0.1 -0.13 -2.0 -2.23 8.91 6.96 9.7 25.57 1655503802.6519444
-0.1 -0.13 -2.01 -2.24 10.99 8.54 8.97 28.5 1655503802.6604793
-0.1 -0.13 -2.01 -2.24 13.06 9.16 9.7 31.92 1655503802.6612184
-0.1 -0.13 -2.01 -2.24 15.63 9.58 9.46 34.67 1655503802.6619396
-0.1 -0.13 -2.01 -2.25 16.11 11.84 8.73 36.68 1655503802.666499
-0.1 -0.13 -2.01 -2.24 18.43 13.85 9.28 41.56 1655503802.6672685
-0.11 -0.13 -2.01 -2.25 19.53 14.28 9.83 43.64 1655503802.6708052
-0.11 -0.13 -2.02 -2.26 21.91 14.89 9.89 46.69 1655503802.6741605
-0.1 -0.13 -2.02 -2.25 23.32 16.11 9.77 49.19 1655503802.6773524
-0.1 -0.13 -2.03 -2.27 24.41 15.63 10.44 50.48 1655503802.6804683
-0.1 -0.12 -2.04 -2.26 24.35 17.46 9.7 51.51 1655503802.6835363
-0.1 -0.12 -2.04 -2.27 24.96 16.78 9.58 51.33 1655503802.6868367
-0.1 -0.12 -2.04 -2.26 24.17 16.97 9.58 50.72 1655503802.6901166
-0.1 -0.13 -2.05 -2.28 25.7 15.08 9.4 50.17 1655503802.69374
-0.1 -0.13 -2.05 -2.28 25.15 16.3 8.91 50.35 1655503802.6966896
-0.11 -0.12 -2.06 -2.29 23.5 15.32 10.19 49.01 1655503802.7002902
-0.1 -0.13 -2.06 -2.29 22.77 0.31 8.73 31.8 1655503802.7104268
-0.1 -0.13 -2.06 -2.29 22.64 15.38 9.77 47.79 1655503802.7112038
-0.11 -0.13 -2.06 -2.3 19.29 12.7 9.64 41.63 1655503802.7119403
-0.1 -0.12 -2.07 -2.3 18.49 12.94 9.16 40.59 1655503802.7132137
-0.11 -0.13 -2.07 -2.3 16.48 11.72 9.95 38.15 1655503802.7170734
-0.1 -0.12 -2.07 -2.29 14.89 11.11 10.31 36.32 1655503802.7198188
-0.11 -0.12 -2.06 -2.29 14.1 8.85 9.52 32.47 1655503802.723479
-0.1 -0.12 -2.07 -2.29 13.24 9.89 9.03 32.17 1655503802.7264206
-0.1 -0.12 -2.07 -2.29 10.38 7.87 9.34 27.59 1655503802.7300103
-0.11 -0.13 -2.06 -2.3 8.85 6.35 8.42 23.62 1655503802.7339659
-0.1 -0.13 -2.06 -2.29 7.02 4.52 9.22 20.75 1655503802.7369535
-0.1 -0.13 -2.05 -2.28 7.57 5.19 8.73 21.48 1655503802.7402718
-0.11 -0.13 -2.05 -2.28 5.49 5.68 7.32 18.49 1655503802.743277
-0.11 -0.13 -2.05 -2.29 5.8 5.25 9.09 20.14 1655503802.7465343
-0.11 -0.12 -2.05 -2.28 4.64 5.92 8.54 19.1 1655503802.7498639
-0.11 -0.13 -2.05 -2.28 4.03 5.19 10.01 19.23 1655503802.753108
-0.1 -0.12 -2.04 -2.27 3.66 3.91 8.85 16.42 1655503802.7644894
-0.11 -0.13 -2.04 -2.28 2.81 4.52 8.48 15.81 1655503802.7656171
-0.1 -0.13 -2.04 -2.27 2.26 3.05 8.97 14.28 1655503802.7671022
-0.1 -0.13 -2.03 -2.26 3.78 4.15 8.24 16.17 1655503802.7731426
-0.1 -0.13 -2.02 -2.25 3.66 6.23 8.85 18.74 1655503802.7743757
-0.1 -0.13 -2.02 -2.25 6.16 5.62 10.01 21.79 1655503802.7756712
-0.1 -0.13 -2.02 -2.25 5.8 6.04 9.52 21.36 1655503802.776635
-0.1 -0.13 -2.02 -2.24 7.14 7.2 8.73 23.07 1655503802.779575
-0.1 -0.13 -2.02 -2.25 9.46 8.06 8.3 25.82 1655503802.7828288
-0.1 -0.13 -2.01 -2.25 12.08 8.18 9.09 29.36 1655503802.7862234
-0.1 -0.13 -2.01 -2.25 13.55 11.17 10.25 34.97 1655503802.7895668
-0.1 -0.13 -2.02 -2.24 14.16 10.01 7.93 32.1 1655503802.7929058
-0.1 -0.13 -2.01 -2.24 14.47 10.56 8.91 33.94 1655503802.7962658
-0.1 -0.13 -2.02 -2.25 17.82 13.55 9.34 40.71 1655503802.7996383
-0.1 -0.12 -2.02 -2.25 18.49 13.0 8.97 40.47 1655503802.8028288
-0.1 -0.13 -2.03 -2.25 20.63 13.18 9.46 43.27 1655503802.8132925
-0.1 -0.13 -2.02 -2.25 19.96 11.9 8.79 40.65 1655503802.8142858
-0.1 -0.13 -2.03 -2.26 21.24 31.07 10.31 62.62 1655503802.8152993
-0.1 -0.13 -2.04 -2.27 21.06 13.61 9.89 44.56 1655503802.8162599
-0.11 -0.13 -2.04 -2.28 21.24 14.89 8.79 44.92 1655503802.821138
-0.1 -0.13 -2.04 -2.27 21.36 14.16 8.97 44.49 1655503802.822696
-0.1 -0.12 -2.04 -2.27 21.12 15.08 9.28 45.47 1655503802.826037
-0.1 -0.12 -2.05 -2.27 20.94 14.65 10.13 45.72 1655503802.8292894
-0.1 -0.12 -2.05 -2.28 19.41 14.34 8.67 42.42 1655503802.8327065
-0.11 -0.12 -2.06 -2.28 18.86 14.53 9.16 42.54 1655503802.8356771
-0.1 -0.12 -2.05 -2.28 17.15 13.18 9.03 39.37 1655503802.8395278
-0.1 -0.13 -2.06 -2.28 18.55 13.85 9.83 42.24 1655503802.8421707
-0.1 -0.12 -2.06 -2.28 16.36 13.12 8.54 38.02 1655503802.8460767
-0.1 -0.12 -2.06 -2.29 15.93 12.02 8.42 36.38 1655503802.8494446
-0.11 -0.13 -2.06 -2.29 13.85 11.72 9.4 34.97 1655503802.8548052
-0.1 -0.13 -2.05 -2.28 13.31 9.77 9.34 32.41 1655503802.8554132
-0.1 -0.13 -2.06 -2.29 12.27 9.58 8.24 30.09 1655503802.8589823
-0.1 -0.12 -2.06 -2.28 10.99 8.3 9.46 28.75 1655503802.862443
-0.11 -0.13 -2.05 -2.29 9.22 6.9 9.46 25.57 1655503802.866022
-0.11 -0.16 -2.05 -2.31 10.62 5.49 9.89 26.0 1655503802.8693247
-0.11 -0.13 -2.05 -2.28 9.03 5.25 8.85 23.13 1655503802.8725922
-0.1 -0.13 -2.05 -2.28 8.0 4.7 9.22 21.91 1655503802.8755405
-0.1 -0.12 -2.05 -2.27 7.75 4.82 9.22 21.79 1655503802.8787832
-0.11 -0.13 -2.04 -2.28 5.31 4.52 10.56 20.39 1655503802.882553
-0.1 -0.13 -2.04 -2.27 4.52 6.04 9.95 20.51 1655503802.885906
-0.11 -0.13 -2.04 -2.27 5.43 6.59 10.07 22.09 1655503802.8893201
-0.11 -0.13 -2.04 -2.27 5.62 6.29 9.03 20.94 1655503802.8928325
-0.11 -0.13 -2.03 -2.27 5.86 6.41 9.95 22.22 1655503802.8955379
-0.11 -0.13 -2.03 -2.27 5.98 7.02 9.7 22.71 1655503802.8991146
-0.1 -0.13 -2.03 -2.26 7.26 7.39 10.01 24.66 1655503802.9034111
-0.1 -0.13 -2.02 -2.25 8.54 8.79 9.7 27.04 1655503802.9152076
-0.11 -0.13 -2.03 -2.26 9.46 8.48 10.01 27.95 1655503802.9162886
-0.1 -0.13 -2.02 -2.25 10.13 8.12 9.46 27.71 1655503802.9173486
-0.1 -0.13 -2.03 -2.26 11.66 8.67 9.7 30.03 1655503802.9183865
-0.1 -0.12 -2.02 -2.25 12.57 10.74 9.28 32.59 1655503802.9234552
-0.1 -0.13 -2.02 -2.25 15.69 11.17 8.12 34.97 1655503802.9245272
-0.1 -0.12 -2.02 -2.24 14.89 9.95 9.4 34.24 1655503802.925572
-0.1 -0.13 -2.03 -2.26 14.95 11.6 9.09 35.64 1655503802.9291525
-0.1 -0.13 -2.02 -2.25 16.91 11.41 9.89 38.21 1655503802.9325001
-0.1 -0.13 -2.03 -2.25 16.66 11.84 9.58 38.09 1655503802.9365125
-0.1 -0.13 -2.03 -2.26 17.64 12.27 10.01 39.92 1655503802.9392552
-0.1 -0.13 -2.03 -2.26 18.01 12.57 9.83 40.41 1655503802.9421868
-0.11 -0.12 -2.03 -2.26 19.35 13.12 8.54 41.02 1655503802.9457762
-0.1 -0.12 -2.04 -2.26 19.17 14.59 8.24 41.99 1655503802.949066
-0.1 -0.12 -2.04 -2.26 18.68 15.14 9.4 43.21 1655503802.95266
-0.1 -0.13 -2.04 -2.27 20.32 14.1 8.0 42.42 1655503802.965392
-0.1 -0.13 -2.05 -2.27 18.98 13.24 8.85 41.08 1655503802.9666402
-0.11 -0.13 -2.05 -2.28 19.17 11.35 8.79 39.31 1655503802.9679737
-0.1 -0.13 -2.04 -2.27 18.8 11.66 8.3 38.76 1655503802.9685538
-0.1 -0.13 -2.06 -2.29 19.04 12.02 8.42 39.49 1655503802.9712324
-0.11 -0.13 -2.06 -2.29 16.72 13.0 9.09 38.82 1655503802.9716299
-0.1 -0.13 -2.06 -2.29 15.32 13.24 8.67 37.23 1655503802.975056
-0.11 -0.12 -2.06 -2.29 15.44 11.54 9.03 36.01 1655503802.9782865
-0.11 -0.12 -2.06 -2.29 13.79 10.86 7.81 32.47 1655503802.9815936
-0.1 -0.13 -2.06 -2.29 12.76 11.29 8.85 32.9 1655503802.9848814
-0.11 -0.12 -2.06 -2.29 11.66 10.07 7.87 29.6 1655503802.9882135
-0.1 -0.12 -2.06 -2.29 9.64 10.8 8.67 29.11 1655503802.9914348
-0.1 -0.12 -2.06 -2.28 9.83 9.09 9.4 28.32 1655503802.9954102
-0.1 -0.13 -2.06 -2.29 9.03 8.91 8.91 26.86 1655503802.9985101
-0.1 -0.12 -2.05 -2.28 8.73 8.67 8.91 26.31 1655503803.00149
-0.11 -0.13 -2.05 -2.28 7.81 7.2 10.31 25.33 1655503803.0095863
-0.1 -0.13 -2.04 -2.27 8.97 7.39 8.06 24.41 1655503803.010311
-0.1 -0.12 -2.04 -2.27 8.0 6.04 8.24 22.28 1655503803.0114036
-0.11 -0.12 -2.04 -2.27 8.0 6.1 8.91 23.01 1655503803.0158715
-0.1 -0.13 -2.03 -2.26 6.59 7.39 8.79 22.77 1655503803.0180993
-0.1 -0.13 -2.04 -2.27 9.16 8.48 8.79 26.43 1655503803.0219047
-0.1 -0.13 -2.03 -2.26 8.91 7.02 8.48 24.41 1655503803.0248864
-0.1 -0.13 -2.03 -2.27 8.97 7.51 8.85 25.33 1655503803.0288498
-0.1 -0.12 -2.03 -2.26 9.16 6.59 9.52 25.27 1655503803.0314088
-0.1 -0.13 -2.03 -2.26 8.67 9.46 8.48 26.61 1655503803.034859
-0.1 -0.13 -2.03 -2.25 10.13 8.61 7.81 26.55 1655503803.0385985
-0.1 -0.13 -2.05 -2.28 12.02 8.97 8.36 29.36 1655503803.0417507
-0.1 -0.13 -2.03 -2.26 11.47 9.46 9.89 30.82 1655503803.045245
-0.11 -0.13 -2.03 -2.27 11.47 10.56 9.16 31.19 1655503803.048317
-0.1 -0.13 -2.03 -2.26 12.88 10.44 8.0 31.31 1655503803.0527084
-0.1 -0.12 -2.03 -2.25 14.4 10.74 7.93 33.08 1655503803.0654814
-0.1 -0.13 -2.03 -2.25 14.34 10.07 8.42 32.84 1655503803.0665808
-0.1 -0.13 -2.03 -2.26 15.69 11.29 9.7 36.68 1655503803.067636
-0.1 -0.13 -2.03 -2.26 15.56 10.5 10.25 36.32 1655503803.0687003
-0.1 -0.13 -2.03 -2.26 16.36 12.08 10.07 38.51 1655503803.0738263
-0.1 -0.13 -2.04 -2.27 17.4 12.02 8.79 38.21 1655503803.0749173
-0.1 -0.13 -2.04 -2.26 17.21 12.7 9.03 38.94 1655503803.075961
-0.1 -0.13 -2.04 -2.27 19.29 13.55 9.28 42.11 1655503803.0781772
-0.1 -0.13 -2.04 -2.28 17.94 13.79 9.89 41.63 1655503803.0812097
-0.1 -0.13 -2.04 -2.27 16.78 11.78 8.24 36.8 1655503803.0846841
-0.1 -0.13 -2.04 -2.27 16.72 13.43 9.64 39.79 1655503803.0880382
-0.1 -0.13 -2.04 -2.27 17.03 12.7 8.79 38.51 1655503803.091253
-0.11 -0.13 -2.05 -2.29 17.52 12.45 9.46 39.43 1655503803.0945456
-0.1 -0.12 -2.05 -2.27 15.5 12.51 8.36 36.38 1655503803.0978577
-0.11 -0.12 -2.05 -2.28 16.05 11.41 7.87 35.34 1655503803.1026812
-0.1 -0.13 -2.05 -2.28 13.06 10.44 9.16 32.65 1655503803.1145477
-0.1 -0.12 -2.06 -2.28 15.01 11.11 9.16 35.28 1655503803.1156263
-0.1 -0.16 -2.05 -2.31 12.88 10.38 8.79 32.04 1655503803.1166668
-0.1 -0.12 -2.05 -2.28 11.9 10.38 8.97 31.25 1655503803.117707
-0.11 -0.13 -2.05 -2.28 11.11 10.01 9.52 30.64 1655503803.122854
-0.1 -0.12 -2.05 -2.28 10.01 8.0 9.46 27.47 1655503803.1239443
-0.1 -0.12 -2.04 -2.27 9.46 8.12 9.22 26.79 1655503803.124965
-0.11 -0.12 -2.05 -2.28 10.86 6.65 9.22 26.73 1655503803.1276503
-0.1 -0.12 -2.04 -2.26 10.38 8.48 9.58 28.44 1655503803.1311865
-0.1 -0.16 -2.04 -2.3 8.85 7.57 9.09 25.51 1655503803.134652
-0.1 -0.13 -2.04 -2.27 8.36 8.36 9.22 25.94 1655503803.1379533
-0.1 -0.13 -2.04 -2.27 8.42 8.24 8.48 25.15 1655503803.141228
-0.1 -0.13 -2.04 -2.27 8.85 10.31 9.22 28.38 1655503803.1443062
-0.1 -0.12 -2.04 -2.27 9.77 8.0 10.31 28.08 1655503803.1476448
-0.1 -0.13 -2.03 -2.26 9.83 8.06 9.22 27.1 1655503803.1507015
-0.1 -0.13 -2.03 -2.26 10.68 7.81 8.06 26.55 1655503803.16155
-0.1 -0.13 -2.03 -2.26 9.89 8.79 9.28 27.95 1655503803.1621056
-0.1 -0.13 -2.03 -2.26 9.52 8.36 7.69 25.57 1655503803.1625183
-0.1 -0.13 -2.03 -2.26 8.73 8.24 9.64 26.61 1655503803.163751
-0.1 -0.13 -2.02 -2.26 12.76 10.07 9.22 32.04 1655503803.1670868
-0.1 -0.13 -2.03 -2.26 11.29 9.28 8.48 29.05 1655503803.1704438
-0.11 -0.13 -2.03 -2.27 13.98 10.38 8.54 32.9 1655503803.1737812
-0.11 -0.13 -2.03 -2.26 15.2 9.95 9.28 34.42 1655503803.177172
-0.1 -0.13 -2.04 -2.27 14.28 10.38 9.52 34.18 1655503803.180878
-0.1 -0.13 -2.03 -2.26 15.14 11.05 11.05 37.23 1655503803.1840954
-0.1 -0.13 -2.03 -2.26 13.73 11.17 9.77 34.67 1655503803.1873674
-0.1 -0.13 -2.04 -2.27 16.66 11.29 9.22 37.17 1655503803.1906486
-0.1 -0.13 -2.03 -2.26 16.6 11.9 8.85 37.35 1655503803.1939907
-0.1 -0.13 -2.03 -2.26 16.48 13.73 9.95 40.16 1655503803.1973143
-0.11 -0.13 -2.04 -2.27 15.93 13.49 9.77 39.18 1655503803.2023835
-0.1 -0.13 -2.04 -2.27 16.11 12.82 9.64 38.57 1655503803.214146
-0.1 -0.13 -2.04 -2.27 16.05 13.0 8.48 37.54 1655503803.2152612
-0.1 -0.13 -2.04 -2.28 16.72 11.41 9.89 38.02 1655503803.216311
-0.1 -0.12 -2.04 -2.27 15.69 11.66 9.89 37.23 1655503803.217355
-0.11 -0.13 -2.04 -2.28 16.11 11.23 9.46 36.8 1655503803.2224455
-0.1 -0.13 -2.05 -2.28 14.89 10.62 8.85 34.36 1655503803.2235844
-0.11 -0.12 -2.05 -2.28 14.59 11.29 8.97 34.85 1655503803.2246425
-0.1 -0.13 -2.05 -2.28 14.83 10.62 10.07 35.52 1655503803.2272532
-0.04 -0.09 -2.04 -2.18 15.69 6.9 6.16 28.75 1655503803.230765
-0.03 -0.05 -1.85 -1.92 17.82 13.85 0.31 31.98 1655503803.23387
0.0 -0.06 -1.89 -1.95 30.46 18.19 -7.45 41.2 1655503803.237692
0.06 -0.02 -1.81 -1.78 45.17 18.8 -18.92 45.04 1655503803.2405355
0.04 -0.03 -1.83 -1.82 58.47 28.32 -31.98 54.81 1655503803.2437572
0.02 -0.01 -1.83 -1.82 70.01 33.2 -43.88 59.33 1655503803.24716
-0.07 0.08 -1.94 -1.93 76.05 41.63 -59.51 58.17 1655503803.2520874
-0.16 0.16 -2.0 -1.99 84.41 41.93 -71.78 54.57 1655503803.2637799
-0.18 0.21 -2.03 -2.0 86.91 43.03 -85.57 44.37 1655503803.264935
-0.12 0.16 -2.15 -2.11 89.9 33.14 -96.07 26.98 1655503803.2660003
-0.15 0.17 -1.96 -1.94 91.92 30.88 -104.25 18.55 1655503803.26711
-0.2 0.12 -1.91 -2.0 85.27 48.03 -112.61 20.69 1655503803.272234
-0.34 0.15 -2.04 -2.23 80.32 62.99 -140.26 3.05 1655503803.273323
-0.34 0.03 -2.37 -2.68 117.13 14.95 -137.08 -5.0 1655503803.2744172
-0.19 -0.18 -1.85 -2.23 115.42 8.97 -135.74 -11.35 1655503803.2769516
-0.2 -0.32 -2.34 -2.86 101.2 0.67 -125.92 -24.05 1655503803.2806585
-0.2 -0.28 -2.27 -2.75 89.84 5.74 -113.83 -18.25 1655503803.2835693
-0.07 -0.19 -1.97 -2.23 85.33 9.64 -99.98 -5.0 1655503803.2871854
-0.03 -0.16 -2.14 -2.33 78.92 1.34 -96.31 -16.05 1655503803.2903237
-0.05 -0.08 -2.09 -2.22 68.36 11.41 -101.32 -21.55 1655503803.2939372
0.09 -0.09 -2.03 -2.04 58.96 13.0 -103.03 -31.07 1655503803.2973077
0.1 0.07 -2.14 -1.97 53.59 7.08 -111.45 -50.78 1655503803.3022962
0.05 0.01 -2.14 -2.09 43.58 3.42 -124.27 -77.27 1655503803.3130941
-0.01 -0.01 -2.14 -2.15 27.95 0.49 -139.89 -111.45 1655503803.314227
0.08 -0.08 -2.11 -2.11 16.3 0.24 -147.71 -131.16 1655503803.3153484
0.05 -0.07 -2.17 -2.19 4.33 1.1 -157.53 -152.1 1655503803.3164256
-0.0 -0.19 -2.15 -2.33 -9.7 0.92 -161.44 -170.23 1655503803.3214645
-0.02 -0.07 -2.01 -2.11 -27.71 -1.59 -162.23 -191.53 1655503803.3226166
-0.02 -0.13 -2.1 -2.24 -39.06 -0.98 -162.17 -202.21 1655503803.3237696
-0.03 -0.21 -2.28 -2.51 -55.36 0.18 -162.23 -217.41 1655503803.327071
-0.12 -0.09 -2.18 -2.39 -67.81 -3.23 -160.95 -231.99 1655503803.330592
-0.17 -0.09 -2.12 -2.38 -83.37 -0.61 -165.53 -249.51 1655503803.334293
-0.18 -0.1 -2.14 -2.42 -94.73 1.53 -164.67 -257.87 1655503803.3373067
-0.12 -0.11 -1.89 -2.12 -76.23 -2.32 -172.12 -250.67 1655503803.3406563
-0.22 -0.15 -2.09 -2.46 -50.35 -41.08 -177.67 -269.1 1655503803.3439631
-0.24 -0.15 -1.98 -2.38 -55.48 -35.46 -175.48 -266.42 1655503803.347295
-0.21 -0.31 -2.19 -2.71 -54.44 -35.52 -171.26 -261.23 1655503803.3503792
-0.24 -0.3 -2.09 -2.64 -53.65 -46.08 -153.2 -252.93 1655503803.3536167
-0.23 -0.32 -2.16 -2.71 -65.98 -42.91 -140.81 -249.69 1655503803.3651853
-0.25 -0.32 -2.11 -2.67 -75.93 -45.96 -129.21 -251.1 1655503803.3664234
-0.28 -0.34 -2.05 -2.67 -79.22 -43.7 -116.88 -239.81 1655503803.367619
-0.33 -0.28 -2.06 -2.68 -80.44 -46.26 -101.75 -228.45 1655503803.3687875
-0.33 -0.3 -1.97 -2.59 -82.34 -46.02 -87.46 -215.82 1655503803.3717737
-0.36 -0.33 -1.97 -2.65 -83.37 -37.96 -59.81 -181.15 1655503803.3731413
-0.51 -0.27 -1.99 -2.77 -85.63 -25.15 -2.2 -112.98 1655503803.3765824
-0.32 -0.0 -2.23 -2.55 -104.37 6.84 41.5 -56.03 1655503803.3799386
-0.45 -0.3 -1.99 -2.75 -103.21 -1.22 76.05 -28.38 1655503803.3832197
-0.43 -0.51 -1.79 -2.72 -101.01 8.91 122.25 30.15 1655503803.3867717
-0.37 -0.21 -1.73 -2.32 -90.45 15.01 164.18 88.75 1655503803.390154
-0.36 -0.38 -2.37 -3.1 -60.36 -25.27 186.22 100.59 1655503803.393432
-0.23 -0.34 -1.43 -2.0 -41.81 4.88 206.12 169.19 1655503803.3967311
-0.32 -0.51 -2.04 -2.86 -28.44 27.71 236.88 236.15 1655503803.4000735
-0.2 -0.36 -2.26 -2.82 1.59 -8.48 263.37 256.47 1655503803.406444
-0.02 -0.4 -1.41 -1.83 -3.54 25.02 259.89 281.37 1655503803.4068947
-0.12 -0.52 -2.08 -2.72 1.28 35.34 258.85 295.47 1655503803.410141
0.02 -0.36 -1.99 -2.32 20.45 11.47 250.31 282.23 1655503803.4133425
0.02 -0.15 -1.89 -2.01 16.05 36.74 237.49 290.28 1655503803.4170299
0.03 -0.03 -2.15 -2.15 36.44 16.54 226.62 279.6 1655503803.4201622
0.12 -0.05 -1.73 -1.66 40.22 24.11 208.8 273.13 1655503803.4233596
0.08 -0.09 -2.08 -2.09 38.76 39.49 191.83 270.08 1655503803.4267488
0.15 -0.04 -1.94 -1.83 55.85 22.28 175.29 253.42 1655503803.4300342
0.16 -0.01 -1.91 -1.75 54.02 31.8 141.6 227.42 1655503803.4333658
0.13 -0.03 -2.03 -1.93 61.46 30.82 120.3 212.59 1655503803.4370255
0.16 -0.01 -1.95 -1.8 72.88 23.68 95.95 192.5 1655503803.4403565
0.16 -0.03 -1.91 -1.77 90.27 22.89 61.04 174.19 1655503803.4432275
0.03 0.11 -1.72 -1.58 93.26 26.06 56.88 176.21 1655503803.4471855
0.03 0.08 -1.68 -1.57 94.12 42.05 49.19 185.36 1655503803.452522
0.02 0.04 -1.77 -1.71 98.94 68.18 46.02 213.13 1655503803.4645033
0.03 0.09 -1.98 -1.86 110.53 74.16 38.88 223.57 1655503803.4657075
-0.02 0.07 -1.91 -1.86 122.25 72.88 27.59 222.72 1655503803.4669478
-0.03 0.04 -1.92 -1.91 126.1 80.32 20.32 226.75 1655503803.468129
-0.05 0.02 -1.96 -1.99 134.77 82.03 13.49 230.29 1655503803.4735715
-0.05 0.01 -2.08 -2.11 135.13 83.56 4.15 222.84 1655503803.4747686
-0.01 -0.03 -2.13 -2.17 132.57 80.02 -4.03 208.56 1655503803.4759953
-0.04 -0.05 -2.1 -2.18 129.88 76.78 -28.44 178.22 1655503803.4770715
-0.15 0.1 -2.09 -2.14 145.26 -0.98 -25.09 119.2 1655503803.479771
-0.27 -0.21 -1.79 -2.26 106.81 8.73 -39.73 75.81 1655503803.484256
-0.07 -0.15 -2.33 -2.54 17.88 4.76 -32.78 -10.13 1655503803.4870155
-0.15 -0.05 -2.69 -2.89 -30.09 -1.34 -15.14 -46.57 1655503803.4898033
-0.17 -0.12 -2.51 -2.81 -55.24 16.72 -1.1 -39.61 1655503803.4930732
-0.12 -0.11 -1.76 -1.99 -62.01 17.21 14.95 -29.85 1655503803.4967046
-0.16 -0.1 -2.16 -2.41 -51.88 12.39 19.17 -20.32 1655503803.499719
-0.21 -0.11 -1.99 -2.31 -30.27 -9.4 11.11 -28.56 1655503803.5128734
-0.18 -0.21 -1.76 -2.15 -17.15 -6.1 3.48 -19.78 1655503803.5140028
-0.1 -0.17 -1.9 -2.18 -7.63 3.85 6.29 2.5 1655503803.5150778
-0.1 -0.15 -1.93 -2.18 1.34 10.68 9.03 21.06 1655503803.5161123
-0.11 -0.13 -1.97 -2.21 5.8 10.01 9.64 25.45 1655503803.5212262
-0.1 -0.1 -2.06 -2.26 6.1 14.22 9.77 30.09 1655503803.5222707
-0.11 -0.09 -2.1 -2.31 8.73 13.85 10.38 32.96 1655503803.5233881
-0.11 -0.1 -2.02 -2.23 8.79 12.15 9.77 30.7 1655503803.526796
-0.1 -0.11 -2.11 -2.32 2.99 9.09 8.91 21.0 1655503803.5304956
-0.07 -0.08 -2.14 -2.29 -1.4 2.81 6.16 7.57 1655503803.5331917
-0.08 -0.1 -2.11 -2.28 -6.96 -1.59 2.5 -6.04 1655503803.5368059
-0.1 -0.11 -2.1 -2.32 -10.68 -5.07 0.67 -15.08 1655503803.5396824
-0.11 -0.12 -2.06 -2.29 -10.99 -6.53 0.73 -16.78 1655503803.542839
-0.11 -0.11 -2.03 -2.26 -12.45 -8.48 1.83 -19.1 1655503803.546526
-0.1 -0.12 -2.0 -2.23 -9.77 -9.77 0.43 -19.1 1655503803.5496438
-0.12 -0.14 -1.91 -2.16 -6.23 -6.35 1.1 -11.47 1655503803.5528593
-0.14 -0.17 -1.88 -2.18 -0.12 -0.67 3.66 2.87 1655503803.5648568
-0.13 -0.16 -1.89 -2.18 7.69 4.76 6.53 18.98 1655503803.5659225
-0.12 -0.15 -1.89 -2.16 17.27 11.96 9.16 38.39 1655503803.5670104
-0.12 -0.16 -1.87 -2.15 25.45 18.25 12.08 55.79 1655503803.5680752
-0.12 -0.15 -1.87 -2.14 37.9 26.79 14.95 79.65 1655503803.5744543
-0.1 -0.13 -1.91 -2.14 44.92 32.04 14.53 91.49 1655503803.5755732
-0.1 -0.12 -1.96 -2.17 52.12 36.74 15.2 104.06 1655503803.5767748
-0.1 -0.11 -2.01 -2.22 55.79 37.54 13.43 106.75 1655503803.5794365
-0.09 -0.1 -2.06 -2.25 57.19 38.82 10.19 106.2 1655503803.5827105
-0.09 -0.09 -2.08 -2.26 55.3 37.17 9.34 101.81 1655503803.586019
-0.11 -0.11 -2.04 -2.25 74.46 18.68 7.63 100.77 1655503803.5893016
-0.05 -0.12 -1.95 -2.12 48.34 11.96 5.07 65.37 1655503803.5926216
-0.13 -0.11 -2.32 -2.56 16.72 4.58 5.43 26.73 1655503803.5961738
-0.17 -0.1 -2.36 -2.62 -3.05 11.6 7.69 16.24 1655503803.5997264
-0.11 -0.13 -1.91 -2.14 -19.23 8.97 9.89 -0.37 1655503803.6028643
-0.12 -0.14 -2.27 -2.53 -15.32 -11.96 10.5 -16.78 1655503803.61867
-0.08 -0.1 -1.96 -2.14 -7.08 -16.24 10.5 -12.82 1655503803.619796
-0.14 -0.15 -1.93 -2.22 -13.43 -0.12 10.5 -3.05 1655503803.6208718
-0.13 -0.15 -1.9 -2.17 -1.4 -7.93 12.82 3.48 1655503803.626015
-0.1 -0.08 -1.89 -2.07 0.37 8.67 13.43 22.46 1655503803.627074
-0.06 -0.14 -2.08 -2.28 7.2 10.07 13.0 30.27 1655503803.6281137
-0.09 -0.08 -1.89 -2.06 14.22 4.7 9.64 28.56 1655503803.6291263
-0.09 -0.14 -2.01 -2.24 12.15 16.05 10.5 38.7 1655503803.6301706
-0.1 -0.12 -1.98 -2.2 20.32 10.62 8.67 39.61 1655503803.6330063
